id_participant,type,category_learning_trial,condition_experiment,tick,completed_by,participant_id,starting_time_trial,finishing_time_trial,reaction_time,category,category_id,category_selected,category_selected_id,correct,trained,practice_trial,iti_trial,previous_category_id,previous_category,selected_id,current_position_entity_selected_x,current_position_entity_selected_y,selected_entity_category_id,selected_entity_category,changed_entity_id,changed_entity_category_id,changed_entity_category,current_position_entity_changed_x,current_position_entity_changed_y,first_round,second_round,monitoring_trial,trial_no_change,from_category_id,to_category_id,selected_entity_id,HOSTILE_entities,NEUTRAL_entities,PENDING_entities,UNKNOWN_entities,FRIEND_entities,ASSUMED_FRIEND_entities,ASSUMED_HOSTILE_entities,UNCERTAIN_FRIEND_entities,UNCERTAIN_HOSTILE_entities,total_entities_second_round,round
1,complete_category_learning_trial,1.0,1,208,CLICKED,1,1607079441299,1607079444591,3292,FRIEND,2.0,FRIEND,2,True,1.0,,,,,,,,,,,,,,,,,,,,,,,,,,,,,,,,
1,complete_category_learning_trial,2.0,1,393,CLICKED,1,1607079446614,1607079448467,1853,HOSTILE,4.0,HOSTILE,4,True,1.0,,,,,,,,,,,,,,,,,,,,,,,,,,,,,,,,
1,complete_category_learning_trial,3.0,1,556,CLICKED,1,1607079450483,1607079451849,1366,UNKNOWN,1.0,NEUTRAL,3,False,1.0,,,,,,,,,,,,,,,,,,,,,,,,,,,,,,,,
1,complete_category_learning_trial,4.0,1,693,CLICKED,1,1607079453872,1607079454695,823,NEUTRAL,3.0,NEUTRAL,3,True,1.0,,,,,,,,,,,,,,,,,,,,,,,,,,,,,,,,
1,complete_category_learning_trial,5.0,1,1064,TIMEOUT,1,1607079456709,NA,NA,UNKNOWN,1.0,NA,NA,False,1.0,,,,,,,,,,,,,,,,,,,,,,,,,,,,,,,,
1,complete_category_learning_trial,6.0,1,1122,CLICKED,1,1607079462432,1607079463647,1215,NEUTRAL,3.0,NEUTRAL,3,True,1.0,,,,,,,,,,,,,,,,,,,,,,,,,,,,,,,,
1,complete_category_learning_trial,7.0,1,1279,CLICKED,1,1607079465664,1607079466929,1265,HOSTILE,4.0,HOSTILE,4,True,1.0,,,,,,,,,,,,,,,,,,,,,,,,,,,,,,,,
1,complete_category_learning_trial,8.0,1,1436,CLICKED,1,1607079468936,1607079470183,1247,FRIEND,2.0,FRIEND,2,True,1.0,,,,,,,,,,,,,,,,,,,,,,,,,,,,,,,,
1,complete_category_learning_trial,9.0,1,1581,CLICKED,1,1607079472206,1607079473215,1009,UNKNOWN,1.0,UNKNOWN,1,True,1.0,,,,,,,,,,,,,,,,,,,,,,,,,,,,,,,,
1,complete_category_learning_trial,10.0,1,1760,CLICKED,1,1607079475224,1607079476922,1698,HOSTILE,4.0,HOSTILE,4,True,1.0,,,,,,,,,,,,,,,,,,,,,,,,,,,,,,,,
2,complete_category_learning_trial,1.0,1,325,TIMEOUT,2,1607355485131,NA,NA,UNKNOWN,1.0,NA,NA,False,1.0,,,,,,,,,,,,,,,,,,,,,,,,,,,,,,,,
2,complete_category_learning_trial,2.0,1,600,TIMEOUT,2,1607355490636,NA,NA,HOSTILE,4.0,NA,NA,False,1.0,,,,,,,,,,,,,,,,,,,,,,,,,,,,,,,,
2,complete_category_learning_trial,3.0,1,656,CLICKED,2,1607355496136,1607355497268,1132,NEUTRAL,3.0,UNKNOWN,1,False,1.0,,,,,,,,,,,,,,,,,,,,,,,,,,,,,,,,
2,complete_category_learning_trial,4.0,1,818,CLICKED,2,1607355499290,1607355500505,1215,FRIEND,2.0,HOSTILE,4,False,1.0,,,,,,,,,,,,,,,,,,,,,,,,,,,,,,,,
2,complete_category_learning_trial,5.0,1,977,CLICKED,2,1607355502510,1607355503681,1171,UNKNOWN,1.0,NEUTRAL,3,False,1.0,,,,,,,,,,,,,,,,,,,,,,,,,,,,,,,,
2,complete_category_learning_trial,6.0,1,1140,CLICKED,2,1607355505690,1607355506944,1254,HOSTILE,4.0,HOSTILE,4,True,1.0,,,,,,,,,,,,,,,,,,,,,,,,,,,,,,,,
2,complete_category_learning_trial,7.0,1,1293,CLICKED,2,1607355508951,1607355510002,1051,FRIEND,2.0,FRIEND,2,True,1.0,,,,,,,,,,,,,,,,,,,,,,,,,,,,,,,,
2,complete_category_learning_trial,8.0,1,1509,CLICKED,2,1607355512011,1607355514328,2317,NEUTRAL,3.0,NEUTRAL,3,True,1.0,,,,,,,,,,,,,,,,,,,,,,,,,,,,,,,,
2,complete_category_learning_trial,9.0,1,1673,CLICKED,2,1607355516350,1607355517591,1241,HOSTILE,4.0,HOSTILE,4,True,1.0,,,,,,,,,,,,,,,,,,,,,,,,,,,,,,,,
2,complete_category_learning_trial,10.0,1,1828,CLICKED,2,1607355519612,1607355520708,1096,UNKNOWN,1.0,UNKNOWN,1,True,1.0,,,,,,,,,,,,,,,,,,,,,,,,,,,,,,,,
2,complete_category_learning_trial,11.0,1,1965,CLICKED,2,1607355522730,1607355523443,713,NEUTRAL,3.0,NEUTRAL,3,True,1.0,,,,,,,,,,,,,,,,,,,,,,,,,,,,,,,,
2,complete_category_learning_trial,12.0,1,2148,CLICKED,2,1607355525450,1607355527090,1640,FRIEND,2.0,FRIEND,2,True,1.0,,,,,,,,,,,,,,,,,,,,,,,,,,,,,,,,
2,complete_category_learning_trial,13.0,1,2304,CLICKED,2,1607355529110,1607355530225,1115,UNKNOWN,1.0,UNKNOWN,1,True,1.0,,,,,,,,,,,,,,,,,,,,,,,,,,,,,,,,
3,complete_category_learning_trial,1.0,1,280,CLICKED,3,1607355490402,1607355495016,4614,HOSTILE,4.0,FRIEND,2,False,1.0,,,,,,,,,,,,,,,,,,,,,,,,,,,,,,,,
3,complete_category_learning_trial,2.0,1,443,CLICKED,3,1607355497021,1607355498280,1259,FRIEND,2.0,FRIEND,2,True,1.0,,,,,,,,,,,,,,,,,,,,,,,,,,,,,,,,
3,complete_category_learning_trial,3.0,1,629,CLICKED,3,1607355500302,1607355502000,1698,UNKNOWN,1.0,NEUTRAL,3,False,1.0,,,,,,,,,,,,,,,,,,,,,,,,,,,,,,,,
3,complete_category_learning_trial,4.0,1,801,CLICKED,3,1607355504021,1607355505433,1412,NEUTRAL,3.0,NEUTRAL,3,True,1.0,,,,,,,,,,,,,,,,,,,,,,,,,,,,,,,,
3,complete_category_learning_trial,5.0,1,963,CLICKED,3,1607355507442,1607355508673,1231,HOSTILE,4.0,HOSTILE,4,True,1.0,,,,,,,,,,,,,,,,,,,,,,,,,,,,,,,,
3,complete_category_learning_trial,6.0,1,1131,CLICKED,3,1607355510682,1607355512026,1344,FRIEND,2.0,FRIEND,2,True,1.0,,,,,,,,,,,,,,,,,,,,,,,,,,,,,,,,
3,complete_category_learning_trial,7.0,1,1306,CLICKED,3,1607355514041,1607355515530,1489,UNKNOWN,1.0,UNKNOWN,1,True,1.0,,,,,,,,,,,,,,,,,,,,,,,,,,,,,,,,
3,complete_category_learning_trial,8.0,1,1494,CLICKED,3,1607355517542,1607355519298,1756,NEUTRAL,3.0,NEUTRAL,3,True,1.0,,,,,,,,,,,,,,,,,,,,,,,,,,,,,,,,
3,complete_category_learning_trial,9.0,1,1634,CLICKED,3,1607355521301,1607355522083,782,NEUTRAL,3.0,NEUTRAL,3,True,1.0,,,,,,,,,,,,,,,,,,,,,,,,,,,,,,,,
3,complete_category_learning_trial,10.0,1,1781,CLICKED,3,1607355524102,1607355525027,925,UNKNOWN,1.0,UNKNOWN,1,True,1.0,,,,,,,,,,,,,,,,,,,,,,,,,,,,,,,,
4,complete_category_learning_trial,1.0,1,325,TIMEOUT,4,1607355495661,NA,NA,NEUTRAL,3.0,NA,NA,False,1.0,,,,,,,,,,,,,,,,,,,,,,,,,,,,,,,,
4,complete_category_learning_trial,2.0,1,402,CLICKED,4,1607355501171,1607355502713,1542,FRIEND,2.0,NEUTRAL,3,False,1.0,,,,,,,,,,,,,,,,,,,,,,,,,,,,,,,,
4,complete_category_learning_trial,3.0,1,562,CLICKED,4,1607355504720,1607355505920,1200,HOSTILE,4.0,HOSTILE,4,True,1.0,,,,,,,,,,,,,,,,,,,,,,,,,,,,,,,,
4,complete_category_learning_trial,4.0,1,730,CLICKED,4,1607355507940,1607355509277,1337,UNKNOWN,1.0,UNKNOWN,1,True,1.0,,,,,,,,,,,,,,,,,,,,,,,,,,,,,,,,
4,complete_category_learning_trial,5.0,1,884,CLICKED,4,1607355511300,1607355512346,1046,HOSTILE,4.0,HOSTILE,4,True,1.0,,,,,,,,,,,,,,,,,,,,,,,,,,,,,,,,
4,complete_category_learning_trial,6.0,1,1047,CLICKED,4,1607355514360,1607355515603,1243,UNKNOWN,1.0,NEUTRAL,3,False,1.0,,,,,,,,,,,,,,,,,,,,,,,,,,,,,,,,
4,complete_category_learning_trial,7.0,1,1204,CLICKED,4,1607355517620,1607355518742,1122,FRIEND,2.0,FRIEND,2,True,1.0,,,,,,,,,,,,,,,,,,,,,,,,,,,,,,,,
4,complete_category_learning_trial,8.0,1,1342,CLICKED,4,1607355520760,1607355521512,752,NEUTRAL,3.0,NEUTRAL,3,True,1.0,,,,,,,,,,,,,,,,,,,,,,,,,,,,,,,,
4,complete_category_learning_trial,9.0,1,1519,CLICKED,4,1607355523520,1607355525052,1532,NEUTRAL,3.0,FRIEND,2,False,1.0,,,,,,,,,,,,,,,,,,,,,,,,,,,,,,,,
4,complete_category_learning_trial,10.0,1,1687,CLICKED,4,1607355527063,1607355528413,1350,HOSTILE,4.0,HOSTILE,4,True,1.0,,,,,,,,,,,,,,,,,,,,,,,,,,,,,,,,
4,complete_category_learning_trial,11.0,1,1896,CLICKED,4,1607355530421,1607355532581,2160,FRIEND,2.0,FRIEND,2,True,1.0,,,,,,,,,,,,,,,,,,,,,,,,,,,,,,,,
4,complete_category_learning_trial,12.0,1,2055,CLICKED,4,1607355534600,1607355535775,1175,UNKNOWN,1.0,UNKNOWN,1,True,1.0,,,,,,,,,,,,,,,,,,,,,,,,,,,,,,,,
5,complete_category_learning_trial,1.0,1,325,TIMEOUT,5,1607355500969,NA,NA,UNKNOWN,1.0,NA,NA,False,1.0,,,,,,,,,,,,,,,,,,,,,,,,,,,,,,,,
5,complete_category_learning_trial,2.0,1,420,CLICKED,5,1607355506497,1607355508386,1889,NEUTRAL,3.0,FRIEND,2,False,1.0,,,,,,,,,,,,,,,,,,,,,,,,,,,,,,,,
5,complete_category_learning_trial,3.0,1,608,CLICKED,5,1607355510427,1607355512175,1748,HOSTILE,4.0,HOSTILE,4,True,1.0,,,,,,,,,,,,,,,,,,,,,,,,,,,,,,,,
5,complete_category_learning_trial,4.0,1,796,CLICKED,5,1607355514204,1607355515934,1730,FRIEND,2.0,UNKNOWN,1,False,1.0,,,,,,,,,,,,,,,,,,,,,,,,,,,,,,,,
5,complete_category_learning_trial,5.0,1,1022,CLICKED,5,1607355517966,1607355520457,2491,NEUTRAL,3.0,UNKNOWN,1,False,1.0,,,,,,,,,,,,,,,,,,,,,,,,,,,,,,,,
5,complete_category_learning_trial,6.0,1,1213,CLICKED,5,1607355522486,1607355524298,1812,FRIEND,2.0,FRIEND,2,True,1.0,,,,,,,,,,,,,,,,,,,,,,,,,,,,,,,,
5,complete_category_learning_trial,7.0,1,1371,CLICKED,5,1607355526329,1607355527447,1118,HOSTILE,4.0,HOSTILE,4,True,1.0,,,,,,,,,,,,,,,,,,,,,,,,,,,,,,,,
5,complete_category_learning_trial,8.0,1,1534,CLICKED,5,1607355529468,1607355530736,1268,UNKNOWN,1.0,NEUTRAL,3,False,1.0,,,,,,,,,,,,,,,,,,,,,,,,,,,,,,,,
5,complete_category_learning_trial,9.0,1,1707,CLICKED,5,1607355532768,1607355534187,1419,HOSTILE,4.0,HOSTILE,4,True,1.0,,,,,,,,,,,,,,,,,,,,,,,,,,,,,,,,
5,complete_category_learning_trial,10.0,1,1942,CLICKED,5,1607355536206,1607355538890,2684,NEUTRAL,3.0,NEUTRAL,3,True,1.0,,,,,,,,,,,,,,,,,,,,,,,,,,,,,,,,
5,complete_category_learning_trial,11.0,1,2084,CLICKED,5,1607355540906,1607355541775,869,UNKNOWN,1.0,UNKNOWN,1,True,1.0,,,,,,,,,,,,,,,,,,,,,,,,,,,,,,,,
5,complete_category_learning_trial,12.0,1,2219,CLICKED,5,1607355543784,1607355544481,697,FRIEND,2.0,FRIEND,2,True,1.0,,,,,,,,,,,,,,,,,,,,,,,,,,,,,,,,
5,complete_category_learning_trial,13.0,1,2371,CLICKED,5,1607355546506,1607355547517,1011,HOSTILE,4.0,HOSTILE,4,True,1.0,,,,,,,,,,,,,,,,,,,,,,,,,,,,,,,,
5,complete_category_learning_trial,14.0,1,2610,CLICKED,5,1607355549549,1607355552302,2753,UNKNOWN,1.0,UNKNOWN,1,True,1.0,,,,,,,,,,,,,,,,,,,,,,,,,,,,,,,,
6,complete_category_learning_trial,1.0,1,325,TIMEOUT,6,1607355501204,NA,NA,FRIEND,2.0,NA,NA,False,1.0,,,,,,,,,,,,,,,,,,,,,,,,,,,,,,,,
6,complete_category_learning_trial,2.0,1,484,CLICKED,6,1607355506707,1607355509887,3180,NEUTRAL,3.0,FRIEND,2,False,1.0,,,,,,,,,,,,,,,,,,,,,,,,,,,,,,,,
6,complete_category_learning_trial,3.0,1,681,CLICKED,6,1607355511903,1607355513835,1932,HOSTILE,4.0,HOSTILE,4,True,1.0,,,,,,,,,,,,,,,,,,,,,,,,,,,,,,,,
6,complete_category_learning_trial,4.0,1,873,CLICKED,6,1607355515851,1607355517677,1826,UNKNOWN,1.0,UNKNOWN,1,True,1.0,,,,,,,,,,,,,,,,,,,,,,,,,,,,,,,,
6,complete_category_learning_trial,5.0,1,1044,CLICKED,6,1607355519690,1607355521106,1416,FRIEND,2.0,FRIEND,2,True,1.0,,,,,,,,,,,,,,,,,,,,,,,,,,,,,,,,
6,complete_category_learning_trial,6.0,1,1185,CLICKED,6,1607355523110,1607355523927,817,NEUTRAL,3.0,NEUTRAL,3,True,1.0,,,,,,,,,,,,,,,,,,,,,,,,,,,,,,,,
6,complete_category_learning_trial,7.0,1,1329,CLICKED,6,1607355525930,1607355526797,867,HOSTILE,4.0,HOSTILE,4,True,1.0,,,,,,,,,,,,,,,,,,,,,,,,,,,,,,,,
6,complete_category_learning_trial,8.0,1,1496,CLICKED,6,1607355528810,1607355530134,1324,UNKNOWN,1.0,UNKNOWN,1,True,1.0,,,,,,,,,,,,,,,,,,,,,,,,,,,,,,,,
6,complete_category_learning_trial,9.0,1,1639,CLICKED,6,1607355532150,1607355533009,859,UNKNOWN,1.0,UNKNOWN,1,True,1.0,,,,,,,,,,,,,,,,,,,,,,,,,,,,,,,,
6,complete_category_learning_trial,10.0,1,1780,CLICKED,6,1607355535030,1607355535830,800,HOSTILE,4.0,HOSTILE,4,True,1.0,,,,,,,,,,,,,,,,,,,,,,,,,,,,,,,,
7,complete_category_learning_trial,1.0,1,238,CLICKED,7,1607355559716,1607355564438,4722,UNKNOWN,1.0,UNKNOWN,1,True,1.0,,,,,,,,,,,,,,,,,,,,,,,,,,,,,,,,
7,complete_category_learning_trial,2.0,1,498,CLICKED,7,1607355566476,1607355570107,3631,NEUTRAL,3.0,NEUTRAL,3,True,1.0,,,,,,,,,,,,,,,,,,,,,,,,,,,,,,,,
7,complete_category_learning_trial,3.0,1,635,CLICKED,7,1607355572129,1607355573107,978,FRIEND,2.0,FRIEND,2,True,1.0,,,,,,,,,,,,,,,,,,,,,,,,,,,,,,,,
7,complete_category_learning_trial,4.0,1,752,CLICKED,7,1607355575124,1607355575679,555,HOSTILE,4.0,HOSTILE,4,True,1.0,,,,,,,,,,,,,,,,,,,,,,,,,,,,,,,,
7,complete_category_learning_trial,5.0,1,890,CLICKED,7,1607355577700,1607355578698,998,UNKNOWN,1.0,UNKNOWN,1,True,1.0,,,,,,,,,,,,,,,,,,,,,,,,,,,,,,,,
7,complete_category_learning_trial,6.0,1,1035,CLICKED,7,1607355580708,1607355581834,1126,HOSTILE,4.0,HOSTILE,4,True,1.0,,,,,,,,,,,,,,,,,,,,,,,,,,,,,,,,
7,complete_category_learning_trial,7.0,1,1405,TIMEOUT,7,1607355583870,NA,NA,NEUTRAL,3.0,NA,NA,False,1.0,,,,,,,,,,,,,,,,,,,,,,,,,,,,,,,,
7,complete_category_learning_trial,8.0,1,1484,CLICKED,7,1607355589923,1607355591566,1643,FRIEND,2.0,FRIEND,2,True,1.0,,,,,,,,,,,,,,,,,,,,,,,,,,,,,,,,
7,complete_category_learning_trial,9.0,1,1641,CLICKED,7,1607355593579,1607355594766,1187,HOSTILE,4.0,HOSTILE,4,True,1.0,,,,,,,,,,,,,,,,,,,,,,,,,,,,,,,,
7,complete_category_learning_trial,10.0,1,1782,CLICKED,7,1607355596781,1607355597657,876,UNKNOWN,1.0,UNKNOWN,1,True,1.0,,,,,,,,,,,,,,,,,,,,,,,,,,,,,,,,
8,complete_category_learning_trial,1.0,1,191,CLICKED,8,1607355541043,1607355543878,2835,FRIEND,2.0,FRIEND,2,True,1.0,,,,,,,,,,,,,,,,,,,,,,,,,,,,,,,,
8,complete_category_learning_trial,2.0,1,391,CLICKED,8,1607355545902,1607355547881,1979,HOSTILE,4.0,HOSTILE,4,True,1.0,,,,,,,,,,,,,,,,,,,,,,,,,,,,,,,,
8,complete_category_learning_trial,3.0,1,768,TIMEOUT,8,1607355549902,NA,NA,UNKNOWN,1.0,NA,NA,False,1.0,,,,,,,,,,,,,,,,,,,,,,,,,,,,,,,,
8,complete_category_learning_trial,4.0,1,832,CLICKED,8,1607355555408,1607355556690,1282,NEUTRAL,3.0,NEUTRAL,3,True,1.0,,,,,,,,,,,,,,,,,,,,,,,,,,,,,,,,
8,complete_category_learning_trial,5.0,1,997,CLICKED,8,1607355558702,1607355559992,1290,NEUTRAL,3.0,UNKNOWN,1,False,1.0,,,,,,,,,,,,,,,,,,,,,,,,,,,,,,,,
8,complete_category_learning_trial,6.0,1,1153,CLICKED,8,1607355562002,1607355563112,1110,UNKNOWN,1.0,UNKNOWN,1,True,1.0,,,,,,,,,,,,,,,,,,,,,,,,,,,,,,,,
8,complete_category_learning_trial,7.0,1,1325,CLICKED,8,1607355565122,1607355566546,1424,FRIEND,2.0,FRIEND,2,True,1.0,,,,,,,,,,,,,,,,,,,,,,,,,,,,,,,,
8,complete_category_learning_trial,8.0,1,1477,CLICKED,8,1607355568562,1607355569598,1036,HOSTILE,4.0,HOSTILE,4,True,1.0,,,,,,,,,,,,,,,,,,,,,,,,,,,,,,,,
8,complete_category_learning_trial,9.0,1,1645,CLICKED,8,1607355571602,1607355572961,1359,NEUTRAL,3.0,NEUTRAL,3,True,1.0,,,,,,,,,,,,,,,,,,,,,,,,,,,,,,,,
8,complete_category_learning_trial,10.0,1,1787,CLICKED,8,1607355574982,1607355575801,819,UNKNOWN,1.0,UNKNOWN,1,True,1.0,,,,,,,,,,,,,,,,,,,,,,,,,,,,,,,,
9,complete_category_learning_trial,1.0,1,291,CLICKED,9,1607355444761,1607355449598,4837,NEUTRAL,3.0,NEUTRAL,3,True,1.0,,,,,,,,,,,,,,,,,,,,,,,,,,,,,,,,
9,complete_category_learning_trial,2.0,1,497,CLICKED,9,1607355451620,1607355453708,2088,UNKNOWN,1.0,UNKNOWN,1,True,1.0,,,,,,,,,,,,,,,,,,,,,,,,,,,,,,,,
9,complete_category_learning_trial,3.0,1,656,CLICKED,9,1607355455720,1607355456887,1167,FRIEND,2.0,FRIEND,2,True,1.0,,,,,,,,,,,,,,,,,,,,,,,,,,,,,,,,
9,complete_category_learning_trial,4.0,1,801,CLICKED,9,1607355458899,1607355459781,882,HOSTILE,4.0,HOSTILE,4,True,1.0,,,,,,,,,,,,,,,,,,,,,,,,,,,,,,,,
9,complete_category_learning_trial,5.0,1,1011,CLICKED,9,1607355461801,1607355463984,2183,FRIEND,2.0,FRIEND,2,True,1.0,,,,,,,,,,,,,,,,,,,,,,,,,,,,,,,,
9,complete_category_learning_trial,6.0,1,1310,CLICKED,9,1607355466000,1607355469972,3972,UNKNOWN,1.0,UNKNOWN,1,True,1.0,,,,,,,,,,,,,,,,,,,,,,,,,,,,,,,,
9,complete_category_learning_trial,7.0,1,1545,CLICKED,9,1607355471981,1607355474666,2685,NEUTRAL,3.0,NEUTRAL,3,True,1.0,,,,,,,,,,,,,,,,,,,,,,,,,,,,,,,,
9,complete_category_learning_trial,8.0,1,1702,CLICKED,9,1607355476680,1607355477809,1129,HOSTILE,4.0,HOSTILE,4,True,1.0,,,,,,,,,,,,,,,,,,,,,,,,,,,,,,,,
9,complete_category_learning_trial,9.0,1,1921,CLICKED,9,1607355479820,1607355482195,2375,NEUTRAL,3.0,NEUTRAL,3,True,1.0,,,,,,,,,,,,,,,,,,,,,,,,,,,,,,,,
9,complete_category_learning_trial,10.0,1,2101,CLICKED,9,1607355484201,1607355485798,1597,FRIEND,2.0,FRIEND,2,True,1.0,,,,,,,,,,,,,,,,,,,,,,,,,,,,,,,,
10,complete_category_learning_trial,1.0,1,222,CLICKED,10,1607355562736,1607355566184,3448,FRIEND,2.0,FRIEND,2,True,1.0,,,,,,,,,,,,,,,,,,,,,,,,,,,,,,,,
10,complete_category_learning_trial,2.0,1,410,CLICKED,10,1607355568213,1607355569938,1725,HOSTILE,4.0,HOSTILE,4,True,1.0,,,,,,,,,,,,,,,,,,,,,,,,,,,,,,,,
10,complete_category_learning_trial,3.0,1,569,CLICKED,10,1607355571954,1607355573115,1161,UNKNOWN,1.0,NEUTRAL,3,False,1.0,,,,,,,,,,,,,,,,,,,,,,,,,,,,,,,,
10,complete_category_learning_trial,4.0,1,726,CLICKED,10,1607355575133,1607355576269,1136,NEUTRAL,3.0,NEUTRAL,3,True,1.0,,,,,,,,,,,,,,,,,,,,,,,,,,,,,,,,
10,complete_category_learning_trial,5.0,1,900,CLICKED,10,1607355578294,1607355579745,1451,NEUTRAL,3.0,NEUTRAL,3,True,1.0,,,,,,,,,,,,,,,,,,,,,,,,,,,,,,,,
10,complete_category_learning_trial,6.0,1,1049,CLICKED,10,1607355581754,1607355582731,977,HOSTILE,4.0,HOSTILE,4,True,1.0,,,,,,,,,,,,,,,,,,,,,,,,,,,,,,,,
10,complete_category_learning_trial,7.0,1,1243,CLICKED,10,1607355584754,1607355586609,1855,UNKNOWN,1.0,UNKNOWN,1,True,1.0,,,,,,,,,,,,,,,,,,,,,,,,,,,,,,,,
10,complete_category_learning_trial,8.0,1,1378,CLICKED,10,1607355588634,1607355589299,665,FRIEND,2.0,FRIEND,2,True,1.0,,,,,,,,,,,,,,,,,,,,,,,,,,,,,,,,
10,complete_category_learning_trial,9.0,1,1564,CLICKED,10,1607355591314,1607355593024,1710,FRIEND,2.0,FRIEND,2,True,1.0,,,,,,,,,,,,,,,,,,,,,,,,,,,,,,,,
10,complete_category_learning_trial,10.0,1,1776,CLICKED,10,1607355595034,1607355597273,2239,UNKNOWN,1.0,UNKNOWN,1,True,1.0,,,,,,,,,,,,,,,,,,,,,,,,,,,,,,,,
11,complete_category_learning_trial,1.0,1,325,TIMEOUT,11,1607355568573,NA,NA,HOSTILE,4.0,NA,NA,False,1.0,,,,,,,,,,,,,,,,,,,,,,,,,,,,,,,,
11,complete_category_learning_trial,2.0,1,435,CLICKED,11,1607355574075,1607355576283,2208,FRIEND,2.0,FRIEND,2,True,1.0,,,,,,,,,,,,,,,,,,,,,,,,,,,,,,,,
11,complete_category_learning_trial,3.0,1,613,CLICKED,11,1607355578292,1607355579851,1559,UNKNOWN,1.0,NEUTRAL,3,False,1.0,,,,,,,,,,,,,,,,,,,,,,,,,,,,,,,,
11,complete_category_learning_trial,4.0,1,801,CLICKED,11,1607355581873,1607355583597,1724,NEUTRAL,3.0,NEUTRAL,3,True,1.0,,,,,,,,,,,,,,,,,,,,,,,,,,,,,,,,
11,complete_category_learning_trial,5.0,1,948,CLICKED,11,1607355585612,1607355586539,927,NEUTRAL,3.0,NEUTRAL,3,True,1.0,,,,,,,,,,,,,,,,,,,,,,,,,,,,,,,,
11,complete_category_learning_trial,6.0,1,1127,CLICKED,11,1607355588552,1607355590115,1563,UNKNOWN,1.0,UNKNOWN,1,True,1.0,,,,,,,,,,,,,,,,,,,,,,,,,,,,,,,,
11,complete_category_learning_trial,7.0,1,1274,CLICKED,11,1607355592132,1607355593071,939,HOSTILE,4.0,HOSTILE,4,True,1.0,,,,,,,,,,,,,,,,,,,,,,,,,,,,,,,,
11,complete_category_learning_trial,8.0,1,1438,CLICKED,11,1607355595092,1607355596332,1240,FRIEND,2.0,FRIEND,2,True,1.0,,,,,,,,,,,,,,,,,,,,,,,,,,,,,,,,
11,complete_category_learning_trial,9.0,1,1595,CLICKED,11,1607355598352,1607355599475,1123,NEUTRAL,3.0,NEUTRAL,3,True,1.0,,,,,,,,,,,,,,,,,,,,,,,,,,,,,,,,
11,complete_category_learning_trial,10.0,1,1738,CLICKED,11,1607355601492,1607355602350,858,HOSTILE,4.0,HOSTILE,4,True,1.0,,,,,,,,,,,,,,,,,,,,,,,,,,,,,,,,
12,complete_category_learning_trial,1.0,1,325,TIMEOUT,12,1607355602808,NA,NA,HOSTILE,4.0,NA,NA,False,1.0,,,,,,,,,,,,,,,,,,,,,,,,,,,,,,,,
12,complete_category_learning_trial,2.0,1,438,CLICKED,12,1607355608313,1607355610574,2261,UNKNOWN,1.0,NEUTRAL,3,False,1.0,,,,,,,,,,,,,,,,,,,,,,,,,,,,,,,,
12,complete_category_learning_trial,3.0,1,598,CLICKED,12,1607355612588,1607355613768,1180,NEUTRAL,3.0,FRIEND,2,False,1.0,,,,,,,,,,,,,,,,,,,,,,,,,,,,,,,,
12,complete_category_learning_trial,4.0,1,740,CLICKED,12,1607355615789,1607355616616,827,FRIEND,2.0,NEUTRAL,3,False,1.0,,,,,,,,,,,,,,,,,,,,,,,,,,,,,,,,
12,complete_category_learning_trial,5.0,1,931,CLICKED,12,1607355618629,1607355620430,1801,UNKNOWN,1.0,NEUTRAL,3,False,1.0,,,,,,,,,,,,,,,,,,,,,,,,,,,,,,,,
12,complete_category_learning_trial,6.0,1,1107,CLICKED,12,1607355622449,1607355623960,1511,FRIEND,2.0,FRIEND,2,True,1.0,,,,,,,,,,,,,,,,,,,,,,,,,,,,,,,,
12,complete_category_learning_trial,7.0,1,1301,CLICKED,12,1607355625969,1607355627847,1878,HOSTILE,4.0,HOSTILE,4,True,1.0,,,,,,,,,,,,,,,,,,,,,,,,,,,,,,,,
12,complete_category_learning_trial,8.0,1,1520,CLICKED,12,1607355629869,1607355632212,2343,NEUTRAL,3.0,FRIEND,2,False,1.0,,,,,,,,,,,,,,,,,,,,,,,,,,,,,,,,
12,complete_category_learning_trial,9.0,1,1664,CLICKED,12,1607355634230,1607355635090,860,NEUTRAL,3.0,NEUTRAL,3,True,1.0,,,,,,,,,,,,,,,,,,,,,,,,,,,,,,,,
12,complete_category_learning_trial,10.0,1,1827,CLICKED,12,1607355637108,1607355638355,1247,HOSTILE,4.0,HOSTILE,4,True,1.0,,,,,,,,,,,,,,,,,,,,,,,,,,,,,,,,
12,complete_category_learning_trial,11.0,1,1990,CLICKED,12,1607355640368,1607355641617,1249,UNKNOWN,1.0,UNKNOWN,1,True,1.0,,,,,,,,,,,,,,,,,,,,,,,,,,,,,,,,
12,complete_category_learning_trial,12.0,1,2134,CLICKED,12,1607355643630,1607355644499,869,FRIEND,2.0,FRIEND,2,True,1.0,,,,,,,,,,,,,,,,,,,,,,,,,,,,,,,,
12,complete_category_learning_trial,13.0,1,2317,CLICKED,12,1607355646507,1607355648152,1645,FRIEND,2.0,FRIEND,2,True,1.0,,,,,,,,,,,,,,,,,,,,,,,,,,,,,,,,
12,complete_category_learning_trial,14.0,1,2465,CLICKED,12,1607355650168,1607355651122,954,NEUTRAL,3.0,NEUTRAL,3,True,1.0,,,,,,,,,,,,,,,,,,,,,,,,,,,,,,,,
13,complete_category_learning_trial,1.0,1,159,CLICKED,13,1607355570593,1607355572778,2185,FRIEND,2.0,FRIEND,2,True,1.0,,,,,,,,,,,,,,,,,,,,,,,,,,,,,,,,
13,complete_category_learning_trial,2.0,1,330,CLICKED,13,1607355574791,1607355576198,1407,HOSTILE,4.0,HOSTILE,4,True,1.0,,,,,,,,,,,,,,,,,,,,,,,,,,,,,,,,
13,complete_category_learning_trial,3.0,1,495,CLICKED,13,1607355578211,1607355579498,1287,UNKNOWN,1.0,NEUTRAL,3,False,1.0,,,,,,,,,,,,,,,,,,,,,,,,,,,,,,,,
13,complete_category_learning_trial,4.0,1,660,CLICKED,13,1607355581510,1607355582809,1299,NEUTRAL,3.0,NEUTRAL,3,True,1.0,,,,,,,,,,,,,,,,,,,,,,,,,,,,,,,,
13,complete_category_learning_trial,5.0,1,836,CLICKED,13,1607355584830,1607355586313,1483,FRIEND,2.0,FRIEND,2,True,1.0,,,,,,,,,,,,,,,,,,,,,,,,,,,,,,,,
13,complete_category_learning_trial,6.0,1,989,CLICKED,13,1607355588330,1607355589373,1043,HOSTILE,4.0,HOSTILE,4,True,1.0,,,,,,,,,,,,,,,,,,,,,,,,,,,,,,,,
13,complete_category_learning_trial,7.0,1,1142,CLICKED,13,1607355591392,1607355592445,1053,NEUTRAL,3.0,NEUTRAL,3,True,1.0,,,,,,,,,,,,,,,,,,,,,,,,,,,,,,,,
13,complete_category_learning_trial,8.0,1,1296,CLICKED,13,1607355594451,1607355595516,1065,UNKNOWN,1.0,UNKNOWN,1,True,1.0,,,,,,,,,,,,,,,,,,,,,,,,,,,,,,,,
13,complete_category_learning_trial,9.0,1,1436,CLICKED,13,1607355597531,1607355598312,781,UNKNOWN,1.0,UNKNOWN,1,True,1.0,,,,,,,,,,,,,,,,,,,,,,,,,,,,,,,,
13,complete_category_learning_trial,10.0,1,1597,CLICKED,13,1607355600330,1607355601540,1210,FRIEND,2.0,FRIEND,2,True,1.0,,,,,,,,,,,,,,,,,,,,,,,,,,,,,,,,
14,complete_category_learning_trial,1.0,1,322,TIMEOUT,14,1607355580551,NA,NA,UNKNOWN,1.0,NA,NA,False,1.0,,,,,,,,,,,,,,,,,,,,,,,,,,,,,,,,
14,complete_category_learning_trial,2.0,1,502,CLICKED,14,1607355586117,1607355589721,3604,NEUTRAL,3.0,NEUTRAL,3,True,1.0,,,,,,,,,,,,,,,,,,,,,,,,,,,,,,,,
14,complete_category_learning_trial,3.0,1,741,CLICKED,14,1607355591744,1607355594516,2772,FRIEND,2.0,FRIEND,2,True,1.0,,,,,,,,,,,,,,,,,,,,,,,,,,,,,,,,
14,complete_category_learning_trial,4.0,1,907,CLICKED,14,1607355596546,1607355597832,1286,HOSTILE,4.0,HOSTILE,4,True,1.0,,,,,,,,,,,,,,,,,,,,,,,,,,,,,,,,
14,complete_category_learning_trial,5.0,1,1075,CLICKED,14,1607355599873,1607355601192,1319,HOSTILE,4.0,HOSTILE,4,True,1.0,,,,,,,,,,,,,,,,,,,,,,,,,,,,,,,,
14,complete_category_learning_trial,6.0,1,1335,CLICKED,14,1607355603226,1607355606392,3166,NEUTRAL,3.0,FRIEND,2,False,1.0,,,,,,,,,,,,,,,,,,,,,,,,,,,,,,,,
14,complete_category_learning_trial,7.0,1,1496,CLICKED,14,1607355608404,1607355609612,1208,FRIEND,2.0,FRIEND,2,True,1.0,,,,,,,,,,,,,,,,,,,,,,,,,,,,,,,,
14,complete_category_learning_trial,8.0,1,1673,CLICKED,14,1607355611627,1607355613160,1533,UNKNOWN,1.0,UNKNOWN,1,True,1.0,,,,,,,,,,,,,,,,,,,,,,,,,,,,,,,,
14,complete_category_learning_trial,9.0,1,1839,CLICKED,14,1607355615188,1607355616480,1292,FRIEND,2.0,FRIEND,2,True,1.0,,,,,,,,,,,,,,,,,,,,,,,,,,,,,,,,
14,complete_category_learning_trial,10.0,1,2011,CLICKED,14,1607355618505,1607355619914,1409,UNKNOWN,1.0,UNKNOWN,1,True,1.0,,,,,,,,,,,,,,,,,,,,,,,,,,,,,,,,
15,complete_category_learning_trial,1.0,1,215,CLICKED,15,1607355580968,1607355584270,3302,FRIEND,2.0,FRIEND,2,True,1.0,,,,,,,,,,,,,,,,,,,,,,,,,,,,,,,,
15,complete_category_learning_trial,2.0,1,506,CLICKED,15,1607355586287,1607355590092,3805,NEUTRAL,3.0,NEUTRAL,3,True,1.0,,,,,,,,,,,,,,,,,,,,,,,,,,,,,,,,
15,complete_category_learning_trial,3.0,1,685,CLICKED,15,1607355592107,1607355593684,1577,UNKNOWN,1.0,UNKNOWN,1,True,1.0,,,,,,,,,,,,,,,,,,,,,,,,,,,,,,,,
15,complete_category_learning_trial,4.0,1,816,CLICKED,15,1607355595706,1607355596302,596,HOSTILE,4.0,HOSTILE,4,True,1.0,,,,,,,,,,,,,,,,,,,,,,,,,,,,,,,,
15,complete_category_learning_trial,5.0,1,949,CLICKED,15,1607355598306,1607355598954,648,HOSTILE,4.0,HOSTILE,4,True,1.0,,,,,,,,,,,,,,,,,,,,,,,,,,,,,,,,
15,complete_category_learning_trial,6.0,1,1102,CLICKED,15,1607355600966,1607355602013,1047,FRIEND,2.0,FRIEND,2,True,1.0,,,,,,,,,,,,,,,,,,,,,,,,,,,,,,,,
15,complete_category_learning_trial,7.0,1,1270,CLICKED,15,1607355604026,1607355605365,1339,NEUTRAL,3.0,NEUTRAL,3,True,1.0,,,,,,,,,,,,,,,,,,,,,,,,,,,,,,,,
15,complete_category_learning_trial,8.0,1,1413,CLICKED,15,1607355607386,1607355608235,849,UNKNOWN,1.0,UNKNOWN,1,True,1.0,,,,,,,,,,,,,,,,,,,,,,,,,,,,,,,,
15,complete_category_learning_trial,9.0,1,1564,CLICKED,15,1607355610246,1607355611246,1000,HOSTILE,4.0,HOSTILE,4,True,1.0,,,,,,,,,,,,,,,,,,,,,,,,,,,,,,,,
15,complete_category_learning_trial,10.0,1,1706,CLICKED,15,1607355613265,1607355614099,834,FRIEND,2.0,FRIEND,2,True,1.0,,,,,,,,,,,,,,,,,,,,,,,,,,,,,,,,
16,complete_category_learning_trial,1.0,1,324,TIMEOUT,16,1607355594901,NA,NA,UNKNOWN,1.0,NA,NA,False,1.0,,,,,,,,,,,,,,,,,,,,,,,,,,,,,,,,
16,complete_category_learning_trial,2.0,1,486,CLICKED,16,1607355600499,1607355603783,3284,NEUTRAL,3.0,FRIEND,2,False,1.0,,,,,,,,,,,,,,,,,,,,,,,,,,,,,,,,
16,complete_category_learning_trial,3.0,1,665,CLICKED,16,1607355605797,1607355607446,1649,HOSTILE,4.0,HOSTILE,4,True,1.0,,,,,,,,,,,,,,,,,,,,,,,,,,,,,,,,
16,complete_category_learning_trial,4.0,1,861,CLICKED,16,1607355609467,1607355611430,1963,FRIEND,2.0,FRIEND,2,True,1.0,,,,,,,,,,,,,,,,,,,,,,,,,,,,,,,,
16,complete_category_learning_trial,5.0,1,1019,CLICKED,16,1607355613447,1607355614650,1203,FRIEND,2.0,FRIEND,2,True,1.0,,,,,,,,,,,,,,,,,,,,,,,,,,,,,,,,
16,complete_category_learning_trial,6.0,1,1213,CLICKED,16,1607355616665,1607355618609,1944,NEUTRAL,3.0,NEUTRAL,3,True,1.0,,,,,,,,,,,,,,,,,,,,,,,,,,,,,,,,
16,complete_category_learning_trial,7.0,1,1393,CLICKED,16,1607355620630,1607355622259,1629,HOSTILE,4.0,HOSTILE,4,True,1.0,,,,,,,,,,,,,,,,,,,,,,,,,,,,,,,,
16,complete_category_learning_trial,8.0,1,1594,CLICKED,16,1607355624274,1607355626367,2093,UNKNOWN,1.0,UNKNOWN,1,True,1.0,,,,,,,,,,,,,,,,,,,,,,,,,,,,,,,,
16,complete_category_learning_trial,9.0,1,1807,CLICKED,16,1607355628373,1607355630706,2333,NEUTRAL,3.0,NEUTRAL,3,True,1.0,,,,,,,,,,,,,,,,,,,,,,,,,,,,,,,,
16,complete_category_learning_trial,10.0,1,2022,CLICKED,16,1607355632711,1607355635075,2364,FRIEND,2.0,FRIEND,2,True,1.0,,,,,,,,,,,,,,,,,,,,,,,,,,,,,,,,
17,complete_category_learning_trial,1.0,1,277,CLICKED,17,1607355605727,1607355610289,4562,HOSTILE,4.0,HOSTILE,4,True,1.0,,,,,,,,,,,,,,,,,,,,,,,,,,,,,,,,
17,complete_category_learning_trial,2.0,1,559,CLICKED,17,1607355612340,1607355615934,3594,UNKNOWN,1.0,NEUTRAL,3,False,1.0,,,,,,,,,,,,,,,,,,,,,,,,,,,,,,,,
17,complete_category_learning_trial,3.0,1,787,CLICKED,17,1607355617960,1607355620481,2521,FRIEND,2.0,FRIEND,2,True,1.0,,,,,,,,,,,,,,,,,,,,,,,,,,,,,,,,
17,complete_category_learning_trial,4.0,1,969,CLICKED,17,1607355622504,1607355624132,1628,NEUTRAL,3.0,NEUTRAL,3,True,1.0,,,,,,,,,,,,,,,,,,,,,,,,,,,,,,,,
17,complete_category_learning_trial,5.0,1,1151,CLICKED,17,1607355626165,1607355627769,1604,HOSTILE,4.0,HOSTILE,4,True,1.0,,,,,,,,,,,,,,,,,,,,,,,,,,,,,,,,
17,complete_category_learning_trial,6.0,1,1404,CLICKED,17,1607355629782,1607355632832,3050,UNKNOWN,1.0,UNKNOWN,1,True,1.0,,,,,,,,,,,,,,,,,,,,,,,,,,,,,,,,
17,complete_category_learning_trial,7.0,1,1582,CLICKED,17,1607355634864,1607355636388,1524,NEUTRAL,3.0,NEUTRAL,3,True,1.0,,,,,,,,,,,,,,,,,,,,,,,,,,,,,,,,
17,complete_category_learning_trial,8.0,1,1777,CLICKED,17,1607355638426,1607355640293,1867,FRIEND,2.0,NEUTRAL,3,False,1.0,,,,,,,,,,,,,,,,,,,,,,,,,,,,,,,,
17,complete_category_learning_trial,9.0,1,2040,CLICKED,17,1607355642325,1607355645549,3224,NEUTRAL,3.0,NEUTRAL,3,True,1.0,,,,,,,,,,,,,,,,,,,,,,,,,,,,,,,,
17,complete_category_learning_trial,10.0,1,2228,CLICKED,17,1607355647579,1607355649313,1734,UNKNOWN,1.0,UNKNOWN,1,True,1.0,,,,,,,,,,,,,,,,,,,,,,,,,,,,,,,,
18,complete_category_learning_trial,1.0,1,325,TIMEOUT,18,1607355621001,NA,NA,NEUTRAL,3.0,NA,NA,False,1.0,,,,,,,,,,,,,,,,,,,,,,,,,,,,,,,,
18,complete_category_learning_trial,2.0,1,412,CLICKED,18,1607355626507,1607355628249,1742,HOSTILE,4.0,HOSTILE,4,True,1.0,,,,,,,,,,,,,,,,,,,,,,,,,,,,,,,,
18,complete_category_learning_trial,3.0,1,582,CLICKED,18,1607355630260,1607355631649,1389,FRIEND,2.0,FRIEND,2,True,1.0,,,,,,,,,,,,,,,,,,,,,,,,,,,,,,,,
18,complete_category_learning_trial,4.0,1,798,CLICKED,18,1607355633660,1607355635977,2317,UNKNOWN,1.0,UNKNOWN,1,True,1.0,,,,,,,,,,,,,,,,,,,,,,,,,,,,,,,,
18,complete_category_learning_trial,5.0,1,991,CLICKED,18,1607355638000,1607355639828,1828,HOSTILE,4.0,HOSTILE,4,True,1.0,,,,,,,,,,,,,,,,,,,,,,,,,,,,,,,,
18,complete_category_learning_trial,6.0,1,1229,CLICKED,18,1607355641843,1607355644588,2745,UNKNOWN,1.0,UNKNOWN,1,True,1.0,,,,,,,,,,,,,,,,,,,,,,,,,,,,,,,,
18,complete_category_learning_trial,7.0,1,1384,CLICKED,18,1607355646603,1607355647700,1097,NEUTRAL,3.0,NEUTRAL,3,True,1.0,,,,,,,,,,,,,,,,,,,,,,,,,,,,,,,,
18,complete_category_learning_trial,8.0,1,1543,CLICKED,18,1607355649723,1607355650877,1154,FRIEND,2.0,FRIEND,2,True,1.0,,,,,,,,,,,,,,,,,,,,,,,,,,,,,,,,
18,complete_category_learning_trial,9.0,1,1686,CLICKED,18,1607355652884,1607355653732,848,HOSTILE,4.0,HOSTILE,4,True,1.0,,,,,,,,,,,,,,,,,,,,,,,,,,,,,,,,
18,complete_category_learning_trial,10.0,1,1844,CLICKED,18,1607355655743,1607355656900,1157,FRIEND,2.0,FRIEND,2,True,1.0,,,,,,,,,,,,,,,,,,,,,,,,,,,,,,,,
19,complete_category_learning_trial,1.0,1,244,CLICKED,19,1607355629331,1607355633225,3894,HOSTILE,4.0,HOSTILE,4,True,1.0,,,,,,,,,,,,,,,,,,,,,,,,,,,,,,,,
19,complete_category_learning_trial,2.0,1,427,CLICKED,19,1607355635250,1607355636878,1628,UNKNOWN,1.0,NEUTRAL,3,False,1.0,,,,,,,,,,,,,,,,,,,,,,,,,,,,,,,,
19,complete_category_learning_trial,3.0,1,601,CLICKED,19,1607355638890,1607355640367,1477,FRIEND,2.0,FRIEND,2,True,1.0,,,,,,,,,,,,,,,,,,,,,,,,,,,,,,,,
19,complete_category_learning_trial,4.0,1,804,CLICKED,19,1607355642391,1607355644417,2026,NEUTRAL,3.0,NEUTRAL,3,True,1.0,,,,,,,,,,,,,,,,,,,,,,,,,,,,,,,,
19,complete_category_learning_trial,5.0,1,1041,CLICKED,19,1607355646429,1607355649165,2736,HOSTILE,4.0,HOSTILE,4,True,1.0,,,,,,,,,,,,,,,,,,,,,,,,,,,,,,,,
19,complete_category_learning_trial,6.0,1,1200,CLICKED,19,1607355651170,1607355652344,1174,NEUTRAL,3.0,NEUTRAL,3,True,1.0,,,,,,,,,,,,,,,,,,,,,,,,,,,,,,,,
19,complete_category_learning_trial,7.0,1,1353,CLICKED,19,1607355654350,1607355655398,1048,FRIEND,2.0,FRIEND,2,True,1.0,,,,,,,,,,,,,,,,,,,,,,,,,,,,,,,,
19,complete_category_learning_trial,8.0,1,1533,CLICKED,19,1607355657410,1607355658991,1581,UNKNOWN,1.0,UNKNOWN,1,True,1.0,,,,,,,,,,,,,,,,,,,,,,,,,,,,,,,,
19,complete_category_learning_trial,9.0,1,1707,CLICKED,19,1607355661009,1607355662481,1472,NEUTRAL,3.0,NEUTRAL,3,True,1.0,,,,,,,,,,,,,,,,,,,,,,,,,,,,,,,,
19,complete_category_learning_trial,10.0,1,1842,CLICKED,19,1607355664489,1607355665170,681,FRIEND,2.0,FRIEND,2,True,1.0,,,,,,,,,,,,,,,,,,,,,,,,,,,,,,,,
20,complete_category_learning_trial,1.0,1,228,CLICKED,20,1607355764042,1607355767614,3572,UNKNOWN,1.0,NEUTRAL,3,False,1.0,,,,,,,,,,,,,,,,,,,,,,,,,,,,,,,,
20,complete_category_learning_trial,2.0,1,605,TIMEOUT,20,1607355769641,NA,NA,FRIEND,2.0,NA,NA,False,1.0,,,,,,,,,,,,,,,,,,,,,,,,,,,,,,,,
20,complete_category_learning_trial,3.0,1,721,CLICKED,20,1607355775147,1607355777470,2323,HOSTILE,4.0,HOSTILE,4,True,1.0,,,,,,,,,,,,,,,,,,,,,,,,,,,,,,,,
20,complete_category_learning_trial,4.0,1,1020,CLICKED,20,1607355779482,1607355783453,3971,NEUTRAL,3.0,NEUTRAL,3,True,1.0,,,,,,,,,,,,,,,,,,,,,,,,,,,,,,,,
20,complete_category_learning_trial,5.0,1,1224,CLICKED,20,1607355785461,1607355787525,2064,UNKNOWN,1.0,UNKNOWN,1,True,1.0,,,,,,,,,,,,,,,,,,,,,,,,,,,,,,,,
20,complete_category_learning_trial,6.0,1,1449,CLICKED,20,1607355789541,1607355792029,2488,NEUTRAL,3.0,NEUTRAL,3,True,1.0,,,,,,,,,,,,,,,,,,,,,,,,,,,,,,,,
20,complete_category_learning_trial,7.0,1,1596,CLICKED,20,1607355794041,1607355794973,932,HOSTILE,4.0,HOSTILE,4,True,1.0,,,,,,,,,,,,,,,,,,,,,,,,,,,,,,,,
20,complete_category_learning_trial,8.0,1,1804,CLICKED,20,1607355796981,1607355799125,2144,FRIEND,2.0,FRIEND,2,True,1.0,,,,,,,,,,,,,,,,,,,,,,,,,,,,,,,,
20,complete_category_learning_trial,9.0,1,2030,CLICKED,20,1607355801141,1607355803646,2505,NEUTRAL,3.0,NEUTRAL,3,True,1.0,,,,,,,,,,,,,,,,,,,,,,,,,,,,,,,,
20,complete_category_learning_trial,10.0,1,2192,CLICKED,20,1607355805661,1607355806885,1224,HOSTILE,4.0,HOSTILE,4,True,1.0,,,,,,,,,,,,,,,,,,,,,,,,,,,,,,,,
21,complete_category_learning_trial,1.0,1,170,CLICKED,21,1607355804908,1607355807324,2416,FRIEND,2.0,FRIEND,2,True,1.0,,,,,,,,,,,,,,,,,,,,,,,,,,,,,,,,
21,complete_category_learning_trial,2.0,1,337,CLICKED,21,1607355809348,1607355810667,1319,HOSTILE,4.0,HOSTILE,4,True,1.0,,,,,,,,,,,,,,,,,,,,,,,,,,,,,,,,
21,complete_category_learning_trial,3.0,1,562,CLICKED,21,1607355812687,1607355815166,2479,UNKNOWN,1.0,NEUTRAL,3,False,1.0,,,,,,,,,,,,,,,,,,,,,,,,,,,,,,,,
21,complete_category_learning_trial,4.0,1,754,CLICKED,21,1607355817187,1607355819008,1821,NEUTRAL,3.0,NEUTRAL,3,True,1.0,,,,,,,,,,,,,,,,,,,,,,,,,,,,,,,,
21,complete_category_learning_trial,5.0,1,929,CLICKED,21,1607355821027,1607355822487,1460,UNKNOWN,1.0,UNKNOWN,1,True,1.0,,,,,,,,,,,,,,,,,,,,,,,,,,,,,,,,
21,complete_category_learning_trial,6.0,1,1117,CLICKED,21,1607355824508,1607355826249,1741,FRIEND,2.0,FRIEND,2,True,1.0,,,,,,,,,,,,,,,,,,,,,,,,,,,,,,,,
21,complete_category_learning_trial,7.0,1,1320,CLICKED,21,1607355828269,1607355830317,2048,HOSTILE,4.0,HOSTILE,4,True,1.0,,,,,,,,,,,,,,,,,,,,,,,,,,,,,,,,
21,complete_category_learning_trial,8.0,1,1560,CLICKED,21,1607355832327,1607355835125,2798,NEUTRAL,3.0,NEUTRAL,3,True,1.0,,,,,,,,,,,,,,,,,,,,,,,,,,,,,,,,
21,complete_category_learning_trial,9.0,1,1728,CLICKED,21,1607355837147,1607355838472,1325,UNKNOWN,1.0,UNKNOWN,1,True,1.0,,,,,,,,,,,,,,,,,,,,,,,,,,,,,,,,
21,complete_category_learning_trial,10.0,1,1912,CLICKED,21,1607355840487,1607355842163,1676,FRIEND,2.0,FRIEND,2,True,1.0,,,,,,,,,,,,,,,,,,,,,,,,,,,,,,,,
22,complete_category_learning_trial,1.0,2,325,TIMEOUT,22,1607359638626,NA,NA,FRIEND,2.0,NA,NA,False,1.0,,,,,,,,,,,,,,,,,,,,,,,,,,,,,,,,
22,complete_category_learning_trial,2.0,2,391,CLICKED,22,1607359644125,1607359645444,1319,UNKNOWN,1.0,NEUTRAL,3,False,1.0,,,,,,,,,,,,,,,,,,,,,,,,,,,,,,,,
22,complete_category_learning_trial,3.0,2,605,CLICKED,22,1607359647480,1607359649719,2239,ASSUMED_HOSTILE,6.0,ASSUMED_HOSTILE,6,True,1.0,,,,,,,,,,,,,,,,,,,,,,,,,,,,,,,,
22,complete_category_learning_trial,4.0,2,850,CLICKED,22,1607359651739,1607359654627,2888,HOSTILE,4.0,HOSTILE,4,True,1.0,,,,,,,,,,,,,,,,,,,,,,,,,,,,,,,,
22,complete_category_learning_trial,5.0,2,1020,CLICKED,22,1607359656639,1607359658036,1397,ASSUMED_FRIEND,5.0,NEUTRAL,3,False,1.0,,,,,,,,,,,,,,,,,,,,,,,,,,,,,,,,
22,complete_category_learning_trial,6.0,2,1232,CLICKED,22,1607359660059,1607359662262,2203,NEUTRAL,3.0,FRIEND,2,False,1.0,,,,,,,,,,,,,,,,,,,,,,,,,,,,,,,,
22,complete_category_learning_trial,7.0,2,1428,CLICKED,22,1607359664279,1607359666187,1908,HOSTILE,4.0,HOSTILE,4,True,1.0,,,,,,,,,,,,,,,,,,,,,,,,,,,,,,,,
22,complete_category_learning_trial,8.0,2,1602,CLICKED,22,1607359668199,1607359669659,1460,ASSUMED_HOSTILE,6.0,ASSUMED_HOSTILE,6,True,1.0,,,,,,,,,,,,,,,,,,,,,,,,,,,,,,,,
22,complete_category_learning_trial,9.0,2,1842,CLICKED,22,1607359671679,1607359674461,2782,NEUTRAL,3.0,NEUTRAL,3,True,1.0,,,,,,,,,,,,,,,,,,,,,,,,,,,,,,,,
22,complete_category_learning_trial,10.0,2,2171,CLICKED,22,1607359676479,1607359681049,4570,ASSUMED_FRIEND,5.0,ASSUMED_HOSTILE,6,False,1.0,,,,,,,,,,,,,,,,,,,,,,,,,,,,,,,,
22,complete_category_learning_trial,11.0,2,2426,CLICKED,22,1607359683060,1607359686149,3089,FRIEND,2.0,FRIEND,2,True,1.0,,,,,,,,,,,,,,,,,,,,,,,,,,,,,,,,
22,complete_category_learning_trial,12.0,2,2620,CLICKED,22,1607359688160,1607359690030,1870,UNKNOWN,1.0,NEUTRAL,3,False,1.0,,,,,,,,,,,,,,,,,,,,,,,,,,,,,,,,
22,complete_category_learning_trial,13.0,2,2785,CLICKED,22,1607359692039,1607359693325,1286,UNKNOWN,1.0,UNKNOWN,1,True,1.0,,,,,,,,,,,,,,,,,,,,,,,,,,,,,,,,
22,complete_category_learning_trial,14.0,2,3063,CLICKED,22,1607359695341,1607359698879,3538,ASSUMED_FRIEND,5.0,ASSUMED_FRIEND,5,True,1.0,,,,,,,,,,,,,,,,,,,,,,,,,,,,,,,,
22,complete_category_learning_trial,15.0,2,3240,CLICKED,22,1607359700902,1607359702427,1525,FRIEND,2.0,FRIEND,2,True,1.0,,,,,,,,,,,,,,,,,,,,,,,,,,,,,,,,
22,complete_category_learning_trial,16.0,2,3464,CLICKED,22,1607359704442,1607359706912,2470,ASSUMED_HOSTILE,6.0,ASSUMED_HOSTILE,6,True,1.0,,,,,,,,,,,,,,,,,,,,,,,,,,,,,,,,
23,complete_category_learning_trial,1.0,2,324,TIMEOUT,23,1607359647843,NA,NA,FRIEND,2.0,NA,NA,False,1.0,,,,,,,,,,,,,,,,,,,,,,,,,,,,,,,,
23,complete_category_learning_trial,2.0,2,556,CLICKED,23,1607359653412,1607359658104,4692,HOSTILE,4.0,HOSTILE,4,True,1.0,,,,,,,,,,,,,,,,,,,,,,,,,,,,,,,,
23,complete_category_learning_trial,3.0,2,842,CLICKED,23,1607359660112,1607359663886,3774,ASSUMED_HOSTILE,6.0,UNKNOWN,1,False,1.0,,,,,,,,,,,,,,,,,,,,,,,,,,,,,,,,
23,complete_category_learning_trial,4.0,2,1151,CLICKED,23,1607359665907,1607359670151,4244,ASSUMED_FRIEND,5.0,ASSUMED_FRIEND,5,True,1.0,,,,,,,,,,,,,,,,,,,,,,,,,,,,,,,,
23,complete_category_learning_trial,5.0,2,1362,CLICKED,23,1607359672170,1607359674434,2264,NEUTRAL,3.0,UNKNOWN,1,False,1.0,,,,,,,,,,,,,,,,,,,,,,,,,,,,,,,,
23,complete_category_learning_trial,6.0,2,1552,CLICKED,23,1607359676442,1607359678266,1824,UNKNOWN,1.0,UNKNOWN,1,True,1.0,,,,,,,,,,,,,,,,,,,,,,,,,,,,,,,,
23,complete_category_learning_trial,7.0,2,1772,CLICKED,23,1607359680286,1607359682733,2447,ASSUMED_HOSTILE,6.0,ASSUMED_HOSTILE,6,True,1.0,,,,,,,,,,,,,,,,,,,,,,,,,,,,,,,,
23,complete_category_learning_trial,8.0,2,1995,CLICKED,23,1607359684739,1607359687248,2509,UNKNOWN,1.0,UNKNOWN,1,True,1.0,,,,,,,,,,,,,,,,,,,,,,,,,,,,,,,,
23,complete_category_learning_trial,9.0,2,2276,CLICKED,23,1607359689255,1607359692921,3666,NEUTRAL,3.0,ASSUMED_FRIEND,5,False,1.0,,,,,,,,,,,,,,,,,,,,,,,,,,,,,,,,
23,complete_category_learning_trial,10.0,2,2446,CLICKED,23,1607359694939,1607359696372,1433,ASSUMED_FRIEND,5.0,ASSUMED_FRIEND,5,True,1.0,,,,,,,,,,,,,,,,,,,,,,,,,,,,,,,,
23,complete_category_learning_trial,11.0,2,2592,CLICKED,23,1607359698385,1607359699330,945,HOSTILE,4.0,HOSTILE,4,True,1.0,,,,,,,,,,,,,,,,,,,,,,,,,,,,,,,,
23,complete_category_learning_trial,12.0,2,2742,CLICKED,23,1607359701344,1607359702371,1027,FRIEND,2.0,FRIEND,2,True,1.0,,,,,,,,,,,,,,,,,,,,,,,,,,,,,,,,
23,complete_category_learning_trial,13.0,2,2929,CLICKED,23,1607359704381,1607359706158,1777,HOSTILE,4.0,HOSTILE,4,True,1.0,,,,,,,,,,,,,,,,,,,,,,,,,,,,,,,,
24,complete_category_learning_trial,1.0,2,206,CLICKED,24,1607359661143,1607359664271,3128,FRIEND,2.0,FRIEND,2,True,1.0,,,,,,,,,,,,,,,,,,,,,,,,,,,,,,,,
24,complete_category_learning_trial,2.0,2,401,CLICKED,24,1607359666305,1607359668182,1877,NEUTRAL,3.0,ASSUMED_FRIEND,5,False,1.0,,,,,,,,,,,,,,,,,,,,,,,,,,,,,,,,
24,complete_category_learning_trial,3.0,2,576,CLICKED,24,1607359670203,1607359671708,1505,ASSUMED_FRIEND,5.0,ASSUMED_FRIEND,5,True,1.0,,,,,,,,,,,,,,,,,,,,,,,,,,,,,,,,
24,complete_category_learning_trial,4.0,2,773,CLICKED,24,1607359673721,1607359675640,1919,ASSUMED_HOSTILE,6.0,ASSUMED_HOSTILE,6,True,1.0,,,,,,,,,,,,,,,,,,,,,,,,,,,,,,,,
24,complete_category_learning_trial,5.0,2,931,CLICKED,24,1607359677661,1607359678805,1144,HOSTILE,4.0,HOSTILE,4,True,1.0,,,,,,,,,,,,,,,,,,,,,,,,,,,,,,,,
24,complete_category_learning_trial,6.0,2,1077,CLICKED,24,1607359680820,1607359681721,901,UNKNOWN,1.0,UNKNOWN,1,True,1.0,,,,,,,,,,,,,,,,,,,,,,,,,,,,,,,,
24,complete_category_learning_trial,7.0,2,1413,CLICKED,24,1607359683740,1607359688445,4705,ASSUMED_FRIEND,5.0,ASSUMED_HOSTILE,6,False,1.0,,,,,,,,,,,,,,,,,,,,,,,,,,,,,,,,
24,complete_category_learning_trial,8.0,2,1580,CLICKED,24,1607359690460,1607359691800,1340,UNKNOWN,1.0,UNKNOWN,1,True,1.0,,,,,,,,,,,,,,,,,,,,,,,,,,,,,,,,
24,complete_category_learning_trial,9.0,2,1763,CLICKED,24,1607359693820,1607359695455,1635,NEUTRAL,3.0,NEUTRAL,3,True,1.0,,,,,,,,,,,,,,,,,,,,,,,,,,,,,,,,
24,complete_category_learning_trial,10.0,2,1948,CLICKED,24,1607359697461,1607359699157,1696,FRIEND,2.0,FRIEND,2,True,1.0,,,,,,,,,,,,,,,,,,,,,,,,,,,,,,,,
25,complete_category_learning_trial,1.0,2,325,TIMEOUT,25,1607359677289,NA,NA,ASSUMED_HOSTILE,6.0,NA,NA,False,1.0,,,,,,,,,,,,,,,,,,,,,,,,,,,,,,,,
25,complete_category_learning_trial,2.0,2,402,CLICKED,25,1607359682800,1607359684335,1535,NEUTRAL,3.0,NEUTRAL,3,True,1.0,,,,,,,,,,,,,,,,,,,,,,,,,,,,,,,,
25,complete_category_learning_trial,3.0,2,611,CLICKED,25,1607359686348,1607359688517,2169,UNKNOWN,1.0,UNKNOWN,1,True,1.0,,,,,,,,,,,,,,,,,,,,,,,,,,,,,,,,
25,complete_category_learning_trial,4.0,2,854,CLICKED,25,1607359690534,1607359693376,2842,ASSUMED_FRIEND,5.0,ASSUMED_HOSTILE,6,False,1.0,,,,,,,,,,,,,,,,,,,,,,,,,,,,,,,,
25,complete_category_learning_trial,5.0,2,1069,CLICKED,25,1607359695390,1607359697669,2279,HOSTILE,4.0,ASSUMED_HOSTILE,6,False,1.0,,,,,,,,,,,,,,,,,,,,,,,,,,,,,,,,
25,complete_category_learning_trial,6.0,2,1316,CLICKED,25,1607359699689,1607359702623,2934,FRIEND,2.0,ASSUMED_FRIEND,5,False,1.0,,,,,,,,,,,,,,,,,,,,,,,,,,,,,,,,
25,complete_category_learning_trial,7.0,2,1552,CLICKED,25,1607359704630,1607359707334,2704,NEUTRAL,3.0,UNKNOWN,1,False,1.0,,,,,,,,,,,,,,,,,,,,,,,,,,,,,,,,
25,complete_category_learning_trial,8.0,2,1708,CLICKED,25,1607359709349,1607359710460,1111,ASSUMED_HOSTILE,6.0,UNKNOWN,1,False,1.0,,,,,,,,,,,,,,,,,,,,,,,,,,,,,,,,
25,complete_category_learning_trial,9.0,2,1868,CLICKED,25,1607359712469,1607359713660,1191,ASSUMED_FRIEND,5.0,UNKNOWN,1,False,1.0,,,,,,,,,,,,,,,,,,,,,,,,,,,,,,,,
25,complete_category_learning_trial,10.0,2,2129,CLICKED,25,1607359715669,1607359718884,3215,FRIEND,2.0,NEUTRAL,3,False,1.0,,,,,,,,,,,,,,,,,,,,,,,,,,,,,,,,
25,complete_category_learning_trial,11.0,2,2397,CLICKED,25,1607359720910,1607359724237,3327,HOSTILE,4.0,ASSUMED_HOSTILE,6,False,1.0,,,,,,,,,,,,,,,,,,,,,,,,,,,,,,,,
25,complete_category_learning_trial,12.0,2,2560,CLICKED,25,1607359726248,1607359727500,1252,UNKNOWN,1.0,UNKNOWN,1,True,1.0,,,,,,,,,,,,,,,,,,,,,,,,,,,,,,,,
25,complete_category_learning_trial,13.0,2,2767,CLICKED,25,1607359729509,1607359731644,2135,FRIEND,2.0,ASSUMED_FRIEND,5,False,1.0,,,,,,,,,,,,,,,,,,,,,,,,,,,,,,,,
25,complete_category_learning_trial,14.0,2,2980,CLICKED,25,1607359733668,1607359735894,2226,ASSUMED_HOSTILE,6.0,ASSUMED_HOSTILE,6,True,1.0,,,,,,,,,,,,,,,,,,,,,,,,,,,,,,,,
25,complete_category_learning_trial,15.0,2,3200,CLICKED,25,1607359737912,1607359740300,2388,NEUTRAL,3.0,NEUTRAL,3,True,1.0,,,,,,,,,,,,,,,,,,,,,,,,,,,,,,,,
25,complete_category_learning_trial,16.0,2,3365,CLICKED,25,1607359742309,1607359743604,1295,UNKNOWN,1.0,UNKNOWN,1,True,1.0,,,,,,,,,,,,,,,,,,,,,,,,,,,,,,,,
25,complete_category_learning_trial,17.0,2,3591,CLICKED,25,1607359745629,1607359748108,2479,HOSTILE,4.0,HOSTILE,4,True,1.0,,,,,,,,,,,,,,,,,,,,,,,,,,,,,,,,
25,complete_category_learning_trial,18.0,2,3776,CLICKED,25,1607359750129,1607359751820,1691,ASSUMED_FRIEND,5.0,FRIEND,2,False,1.0,,,,,,,,,,,,,,,,,,,,,,,,,,,,,,,,
25,complete_category_learning_trial,19.0,2,3951,CLICKED,25,1607359753828,1607359755315,1487,ASSUMED_HOSTILE,6.0,FRIEND,2,False,1.0,,,,,,,,,,,,,,,,,,,,,,,,,,,,,,,,
25,complete_category_learning_trial,20.0,2,4133,CLICKED,25,1607359757328,1607359758964,1636,HOSTILE,4.0,HOSTILE,4,True,1.0,,,,,,,,,,,,,,,,,,,,,,,,,,,,,,,,
25,complete_category_learning_trial,21.0,2,4323,CLICKED,25,1607359760989,1607359762756,1767,ASSUMED_FRIEND,5.0,FRIEND,2,False,1.0,,,,,,,,,,,,,,,,,,,,,,,,,,,,,,,,
25,complete_category_learning_trial,22.0,2,4481,CLICKED,25,1607359764769,1607359765917,1148,UNKNOWN,1.0,UNKNOWN,1,True,1.0,,,,,,,,,,,,,,,,,,,,,,,,,,,,,,,,
25,complete_category_learning_trial,23.0,2,4715,CLICKED,25,1607359767929,1607359770588,2659,NEUTRAL,3.0,ASSUMED_FRIEND,5,False,1.0,,,,,,,,,,,,,,,,,,,,,,,,,,,,,,,,
25,complete_category_learning_trial,24.0,2,4899,CLICKED,25,1607359772610,1607359774284,1674,FRIEND,2.0,ASSUMED_FRIEND,5,False,1.0,,,,,,,,,,,,,,,,,,,,,,,,,,,,,,,,
25,complete_category_learning_trial,25.0,2,5054,CLICKED,25,1607359776288,1607359777376,1088,UNKNOWN,1.0,UNKNOWN,1,True,1.0,,,,,,,,,,,,,,,,,,,,,,,,,,,,,,,,
25,complete_category_learning_trial,26.0,2,5228,CLICKED,25,1607359779388,1607359780860,1472,HOSTILE,4.0,HOSTILE,4,True,1.0,,,,,,,,,,,,,,,,,,,,,,,,,,,,,,,,
25,complete_category_learning_trial,27.0,2,5400,CLICKED,25,1607359782869,1607359784292,1423,FRIEND,2.0,FRIEND,2,True,1.0,,,,,,,,,,,,,,,,,,,,,,,,,,,,,,,,
25,complete_category_learning_trial,28.0,2,5613,CLICKED,25,1607359786308,1607359788548,2240,ASSUMED_HOSTILE,6.0,ASSUMED_HOSTILE,6,True,1.0,,,,,,,,,,,,,,,,,,,,,,,,,,,,,,,,
25,complete_category_learning_trial,29.0,2,5841,CLICKED,25,1607359790569,1607359793108,2539,NEUTRAL,3.0,NEUTRAL,3,True,1.0,,,,,,,,,,,,,,,,,,,,,,,,,,,,,,,,
25,complete_category_learning_trial,30.0,2,6054,CLICKED,25,1607359795129,1607359797374,2245,ASSUMED_FRIEND,5.0,ASSUMED_FRIEND,5,True,1.0,,,,,,,,,,,,,,,,,,,,,,,,,,,,,,,,
25,complete_category_learning_trial,31.0,2,6213,CLICKED,25,1607359799391,1607359800548,1157,ASSUMED_FRIEND,5.0,ASSUMED_FRIEND,5,True,1.0,,,,,,,,,,,,,,,,,,,,,,,,,,,,,,,,
26,complete_category_learning_trial,1.0,2,277,CLICKED,26,1607359676500,1607359681100,4600,UNKNOWN,1.0,NEUTRAL,3,False,1.0,,,,,,,,,,,,,,,,,,,,,,,,,,,,,,,,
26,complete_category_learning_trial,2.0,2,538,CLICKED,26,1607359683100,1607359686400,3300,ASSUMED_FRIEND,5.0,FRIEND,2,False,1.0,,,,,,,,,,,,,,,,,,,,,,,,,,,,,,,,
26,complete_category_learning_trial,3.0,2,760,CLICKED,26,1607359688500,1607359691000,2500,HOSTILE,4.0,ASSUMED_HOSTILE,6,False,1.0,,,,,,,,,,,,,,,,,,,,,,,,,,,,,,,,
26,complete_category_learning_trial,4.0,2,1133,TIMEOUT,26,1607359693000,NA,NA,ASSUMED_HOSTILE,6.0,NA,NA,False,1.0,,,,,,,,,,,,,,,,,,,,,,,,,,,,,,,,
26,complete_category_learning_trial,5.0,2,1210,CLICKED,26,1607359698600,1607359700200,1600,NEUTRAL,3.0,FRIEND,2,False,1.0,,,,,,,,,,,,,,,,,,,,,,,,,,,,,,,,
26,complete_category_learning_trial,6.0,2,1369,CLICKED,26,1607359702200,1607359703400,1200,FRIEND,2.0,FRIEND,2,True,1.0,,,,,,,,,,,,,,,,,,,,,,,,,,,,,,,,
26,complete_category_learning_trial,7.0,2,1579,CLICKED,26,1607359705400,1607359707700,2300,NEUTRAL,3.0,HOSTILE,4,False,1.0,,,,,,,,,,,,,,,,,,,,,,,,,,,,,,,,
26,complete_category_learning_trial,8.0,2,1766,CLICKED,26,1607359709700,1607359711500,1800,ASSUMED_HOSTILE,6.0,HOSTILE,4,False,1.0,,,,,,,,,,,,,,,,,,,,,,,,,,,,,,,,
26,complete_category_learning_trial,9.0,2,1930,CLICKED,26,1607359713500,1607359714800,1300,FRIEND,2.0,FRIEND,2,True,1.0,,,,,,,,,,,,,,,,,,,,,,,,,,,,,,,,
26,complete_category_learning_trial,10.0,2,2223,CLICKED,26,1607359716900,1607359720900,4000,HOSTILE,4.0,HOSTILE,4,True,1.0,,,,,,,,,,,,,,,,,,,,,,,,,,,,,,,,
26,complete_category_learning_trial,11.0,2,2524,CLICKED,26,1607359722800,1607359726900,4100,ASSUMED_FRIEND,5.0,NEUTRAL,3,False,1.0,,,,,,,,,,,,,,,,,,,,,,,,,,,,,,,,
26,complete_category_learning_trial,12.0,2,2706,CLICKED,26,1607359729000,1607359730700,1700,UNKNOWN,1.0,UNKNOWN,1,True,1.0,,,,,,,,,,,,,,,,,,,,,,,,,,,,,,,,
26,complete_category_learning_trial,13.0,2,2939,CLICKED,26,1607359732700,1607359735400,2700,ASSUMED_FRIEND,5.0,ASSUMED_FRIEND,5,True,1.0,,,,,,,,,,,,,,,,,,,,,,,,,,,,,,,,
26,complete_category_learning_trial,14.0,2,3216,CLICKED,26,1607359737400,1607359741000,3600,NEUTRAL,3.0,NEUTRAL,3,True,1.0,,,,,,,,,,,,,,,,,,,,,,,,,,,,,,,,
26,complete_category_learning_trial,15.0,2,3432,CLICKED,26,1607359743100,1607359745400,2300,ASSUMED_HOSTILE,6.0,ASSUMED_HOSTILE,6,True,1.0,,,,,,,,,,,,,,,,,,,,,,,,,,,,,,,,
26,complete_category_learning_trial,16.0,2,3672,CLICKED,26,1607359747500,1607359750400,2900,FRIEND,2.0,FRIEND,2,True,1.0,,,,,,,,,,,,,,,,,,,,,,,,,,,,,,,,
26,complete_category_learning_trial,17.0,2,3829,CLICKED,26,1607359752400,1607359753600,1200,HOSTILE,4.0,HOSTILE,4,True,1.0,,,,,,,,,,,,,,,,,,,,,,,,,,,,,,,,
27,complete_category_learning_trial,1.0,2,212,CLICKED,27,1607359698669,1607359701909,3240,FRIEND,2.0,FRIEND,2,True,1.0,,,,,,,,,,,,,,,,,,,,,,,,,,,,,,,,
27,complete_category_learning_trial,2.0,2,550,CLICKED,27,1607359703928,1607359708670,4742,ASSUMED_HOSTILE,6.0,ASSUMED_HOSTILE,6,True,1.0,,,,,,,,,,,,,,,,,,,,,,,,,,,,,,,,
27,complete_category_learning_trial,3.0,2,738,CLICKED,27,1607359710688,1607359712442,1754,ASSUMED_FRIEND,5.0,ASSUMED_FRIEND,5,True,1.0,,,,,,,,,,,,,,,,,,,,,,,,,,,,,,,,
27,complete_category_learning_trial,4.0,2,959,CLICKED,27,1607359714449,1607359716864,2415,NEUTRAL,3.0,NEUTRAL,3,True,1.0,,,,,,,,,,,,,,,,,,,,,,,,,,,,,,,,
27,complete_category_learning_trial,5.0,2,1114,CLICKED,27,1607359718867,1607359719960,1093,UNKNOWN,1.0,UNKNOWN,1,True,1.0,,,,,,,,,,,,,,,,,,,,,,,,,,,,,,,,
27,complete_category_learning_trial,6.0,2,1248,CLICKED,27,1607359721969,1607359722642,673,HOSTILE,4.0,HOSTILE,4,True,1.0,,,,,,,,,,,,,,,,,,,,,,,,,,,,,,,,
27,complete_category_learning_trial,7.0,2,1411,CLICKED,27,1607359724649,1607359725888,1239,FRIEND,2.0,FRIEND,2,True,1.0,,,,,,,,,,,,,,,,,,,,,,,,,,,,,,,,
27,complete_category_learning_trial,8.0,2,1562,CLICKED,27,1607359727909,1607359728916,1007,ASSUMED_FRIEND,5.0,ASSUMED_FRIEND,5,True,1.0,,,,,,,,,,,,,,,,,,,,,,,,,,,,,,,,
27,complete_category_learning_trial,9.0,2,1839,CLICKED,27,1607359730928,1607359734448,3520,NEUTRAL,3.0,NEUTRAL,3,True,1.0,,,,,,,,,,,,,,,,,,,,,,,,,,,,,,,,
27,complete_category_learning_trial,10.0,2,2017,CLICKED,27,1607359736469,1607359738022,1553,ASSUMED_HOSTILE,6.0,ASSUMED_HOSTILE,6,True,1.0,,,,,,,,,,,,,,,,,,,,,,,,,,,,,,,,
28,complete_category_learning_trial,1.0,2,324,TIMEOUT,28,1607359687087,NA,NA,ASSUMED_HOSTILE,6.0,NA,NA,False,1.0,,,,,,,,,,,,,,,,,,,,,,,,,,,,,,,,
28,complete_category_learning_trial,2.0,2,599,TIMEOUT,28,1607359692667,NA,NA,HOSTILE,4.0,NA,NA,False,1.0,,,,,,,,,,,,,,,,,,,,,,,,,,,,,,,,
28,complete_category_learning_trial,3.0,2,874,TIMEOUT,28,1607359698399,NA,NA,UNKNOWN,1.0,NA,NA,False,1.0,,,,,,,,,,,,,,,,,,,,,,,,,,,,,,,,
28,complete_category_learning_trial,4.0,2,1001,CLICKED,28,1607359703937,1607359706469,2532,FRIEND,2.0,FRIEND,2,True,1.0,,,,,,,,,,,,,,,,,,,,,,,,,,,,,,,,
28,complete_category_learning_trial,5.0,2,1274,CLICKED,28,1607359708525,1607359711969,3444,ASSUMED_FRIEND,5.0,HOSTILE,4,False,1.0,,,,,,,,,,,,,,,,,,,,,,,,,,,,,,,,
28,complete_category_learning_trial,6.0,2,1524,CLICKED,28,1607359714005,1607359716977,2972,NEUTRAL,3.0,NEUTRAL,3,True,1.0,,,,,,,,,,,,,,,,,,,,,,,,,,,,,,,,
28,complete_category_learning_trial,7.0,2,1901,TIMEOUT,28,1607359719011,NA,NA,HOSTILE,4.0,NA,NA,False,1.0,,,,,,,,,,,,,,,,,,,,,,,,,,,,,,,,
28,complete_category_learning_trial,8.0,2,2055,CLICKED,28,1607359724518,1607359727604,3086,UNKNOWN,1.0,UNKNOWN,1,True,1.0,,,,,,,,,,,,,,,,,,,,,,,,,,,,,,,,
28,complete_category_learning_trial,9.0,2,2289,CLICKED,28,1607359729621,1607359732289,2668,ASSUMED_HOSTILE,6.0,FRIEND,2,False,1.0,,,,,,,,,,,,,,,,,,,,,,,,,,,,,,,,
28,complete_category_learning_trial,10.0,2,2666,TIMEOUT,28,1607359734325,NA,NA,ASSUMED_FRIEND,5.0,NA,NA,False,1.0,,,,,,,,,,,,,,,,,,,,,,,,,,,,,,,,
28,complete_category_learning_trial,11.0,2,2783,CLICKED,28,1607359739833,1607359742182,2349,NEUTRAL,3.0,NEUTRAL,3,True,1.0,,,,,,,,,,,,,,,,,,,,,,,,,,,,,,,,
28,complete_category_learning_trial,12.0,2,2955,CLICKED,28,1607359744202,1607359745622,1420,FRIEND,2.0,FRIEND,2,True,1.0,,,,,,,,,,,,,,,,,,,,,,,,,,,,,,,,
28,complete_category_learning_trial,13.0,2,3131,CLICKED,28,1607359747644,1607359749148,1504,FRIEND,2.0,FRIEND,2,True,1.0,,,,,,,,,,,,,,,,,,,,,,,,,,,,,,,,
28,complete_category_learning_trial,14.0,2,3354,CLICKED,28,1607359751163,1607359753624,2461,ASSUMED_HOSTILE,6.0,ASSUMED_HOSTILE,6,True,1.0,,,,,,,,,,,,,,,,,,,,,,,,,,,,,,,,
28,complete_category_learning_trial,15.0,2,3511,CLICKED,28,1607359755641,1607359756784,1143,UNKNOWN,1.0,NEUTRAL,3,False,1.0,,,,,,,,,,,,,,,,,,,,,,,,,,,,,,,,
28,complete_category_learning_trial,16.0,2,3686,CLICKED,28,1607359758802,1607359760302,1500,NEUTRAL,3.0,NEUTRAL,3,True,1.0,,,,,,,,,,,,,,,,,,,,,,,,,,,,,,,,
28,complete_category_learning_trial,17.0,2,3929,CLICKED,28,1607359762328,1607359765185,2857,ASSUMED_FRIEND,5.0,HOSTILE,4,False,1.0,,,,,,,,,,,,,,,,,,,,,,,,,,,,,,,,
28,complete_category_learning_trial,18.0,2,4223,CLICKED,28,1607359767206,1607359771082,3876,HOSTILE,4.0,ASSUMED_HOSTILE,6,False,1.0,,,,,,,,,,,,,,,,,,,,,,,,,,,,,,,,
28,complete_category_learning_trial,19.0,2,4546,CLICKED,28,1607359773104,1607359777556,4452,FRIEND,2.0,ASSUMED_FRIEND,5,False,1.0,,,,,,,,,,,,,,,,,,,,,,,,,,,,,,,,
28,complete_category_learning_trial,20.0,2,4867,CLICKED,28,1607359779584,1607359783972,4388,ASSUMED_FRIEND,5.0,ASSUMED_FRIEND,5,True,1.0,,,,,,,,,,,,,,,,,,,,,,,,,,,,,,,,
28,complete_category_learning_trial,21.0,2,5141,CLICKED,28,1607359786005,1607359789461,3456,ASSUMED_HOSTILE,6.0,ASSUMED_HOSTILE,6,True,1.0,,,,,,,,,,,,,,,,,,,,,,,,,,,,,,,,
28,complete_category_learning_trial,22.0,2,5381,CLICKED,28,1607359791483,1607359794301,2818,HOSTILE,4.0,ASSUMED_FRIEND,5,False,1.0,,,,,,,,,,,,,,,,,,,,,,,,,,,,,,,,
28,complete_category_learning_trial,23.0,2,5566,CLICKED,28,1607359796323,1607359797997,1674,UNKNOWN,1.0,UNKNOWN,1,True,1.0,,,,,,,,,,,,,,,,,,,,,,,,,,,,,,,,
28,complete_category_learning_trial,24.0,2,5726,CLICKED,28,1607359800024,1607359801202,1178,NEUTRAL,3.0,NEUTRAL,3,True,1.0,,,,,,,,,,,,,,,,,,,,,,,,,,,,,,,,
28,complete_category_learning_trial,25.0,2,5937,CLICKED,28,1607359803223,1607359805430,2207,ASSUMED_HOSTILE,6.0,FRIEND,2,False,1.0,,,,,,,,,,,,,,,,,,,,,,,,,,,,,,,,
28,complete_category_learning_trial,26.0,2,6091,CLICKED,28,1607359807465,1607359808519,1054,UNKNOWN,1.0,UNKNOWN,1,True,1.0,,,,,,,,,,,,,,,,,,,,,,,,,,,,,,,,
28,complete_category_learning_trial,27.0,2,6272,CLICKED,28,1607359810543,1607359812134,1591,FRIEND,2.0,FRIEND,2,True,1.0,,,,,,,,,,,,,,,,,,,,,,,,,,,,,,,,
28,complete_category_learning_trial,28.0,2,6476,CLICKED,28,1607359814162,1607359816214,2052,ASSUMED_FRIEND,5.0,ASSUMED_FRIEND,5,True,1.0,,,,,,,,,,,,,,,,,,,,,,,,,,,,,,,,
28,complete_category_learning_trial,29.0,2,6721,CLICKED,28,1607359818250,1607359821120,2870,HOSTILE,4.0,HOSTILE,4,True,1.0,,,,,,,,,,,,,,,,,,,,,,,,,,,,,,,,
29,complete_category_learning_trial,1.0,2,211,CLICKED,29,1607359684550,1607359687770,3220,NEUTRAL,3.0,HOSTILE,4,False,1.0,,,,,,,,,,,,,,,,,,,,,,,,,,,,,,,,
29,complete_category_learning_trial,2.0,2,492,CLICKED,29,1607359689788,1607359693401,3613,FRIEND,2.0,NEUTRAL,3,False,1.0,,,,,,,,,,,,,,,,,,,,,,,,,,,,,,,,
29,complete_category_learning_trial,3.0,2,757,CLICKED,29,1607359695409,1607359698705,3296,ASSUMED_HOSTILE,6.0,ASSUMED_HOSTILE,6,True,1.0,,,,,,,,,,,,,,,,,,,,,,,,,,,,,,,,
29,complete_category_learning_trial,4.0,2,1021,CLICKED,29,1607359700729,1607359703985,3256,ASSUMED_FRIEND,5.0,UNKNOWN,1,False,1.0,,,,,,,,,,,,,,,,,,,,,,,,,,,,,,,,
29,complete_category_learning_trial,5.0,2,1285,CLICKED,29,1607359706007,1607359709257,3250,UNKNOWN,1.0,UNKNOWN,1,True,1.0,,,,,,,,,,,,,,,,,,,,,,,,,,,,,,,,
29,complete_category_learning_trial,6.0,2,1506,CLICKED,29,1607359711268,1607359713681,2413,HOSTILE,4.0,ASSUMED_HOSTILE,6,False,1.0,,,,,,,,,,,,,,,,,,,,,,,,,,,,,,,,
29,complete_category_learning_trial,7.0,2,1780,CLICKED,29,1607359715687,1607359719153,3466,ASSUMED_FRIEND,5.0,ASSUMED_HOSTILE,6,False,1.0,,,,,,,,,,,,,,,,,,,,,,,,,,,,,,,,
29,complete_category_learning_trial,8.0,2,1966,CLICKED,29,1607359721169,1607359722881,1712,HOSTILE,4.0,HOSTILE,4,True,1.0,,,,,,,,,,,,,,,,,,,,,,,,,,,,,,,,
29,complete_category_learning_trial,9.0,2,2237,CLICKED,29,1607359724888,1607359728305,3417,ASSUMED_HOSTILE,6.0,ASSUMED_HOSTILE,6,True,1.0,,,,,,,,,,,,,,,,,,,,,,,,,,,,,,,,
29,complete_category_learning_trial,10.0,2,2435,CLICKED,29,1607359730328,1607359732257,1929,UNKNOWN,1.0,UNKNOWN,1,True,1.0,,,,,,,,,,,,,,,,,,,,,,,,,,,,,,,,
29,complete_category_learning_trial,11.0,2,2661,CLICKED,29,1607359734268,1607359736777,2509,FRIEND,2.0,FRIEND,2,True,1.0,,,,,,,,,,,,,,,,,,,,,,,,,,,,,,,,
29,complete_category_learning_trial,12.0,2,2809,CLICKED,29,1607359738788,1607359739730,942,NEUTRAL,3.0,NEUTRAL,3,True,1.0,,,,,,,,,,,,,,,,,,,,,,,,,,,,,,,,
29,complete_category_learning_trial,13.0,2,2986,CLICKED,29,1607359741748,1607359743282,1534,UNKNOWN,1.0,UNKNOWN,1,True,1.0,,,,,,,,,,,,,,,,,,,,,,,,,,,,,,,,
29,complete_category_learning_trial,14.0,2,3171,CLICKED,29,1607359745290,1607359746986,1696,FRIEND,2.0,FRIEND,2,True,1.0,,,,,,,,,,,,,,,,,,,,,,,,,,,,,,,,
30,complete_category_learning_trial,1.0,2,277,CLICKED,30,1607359693965,1607359698519,4554,FRIEND,2.0,FRIEND,2,True,1.0,,,,,,,,,,,,,,,,,,,,,,,,,,,,,,,,
30,complete_category_learning_trial,2.0,2,453,CLICKED,30,1607359700544,1607359702038,1494,HOSTILE,4.0,HOSTILE,4,True,1.0,,,,,,,,,,,,,,,,,,,,,,,,,,,,,,,,
30,complete_category_learning_trial,3.0,2,664,CLICKED,30,1607359704044,1607359706250,2206,ASSUMED_FRIEND,5.0,ASSUMED_HOSTILE,6,False,1.0,,,,,,,,,,,,,,,,,,,,,,,,,,,,,,,,
30,complete_category_learning_trial,4.0,2,838,CLICKED,30,1607359708265,1607359709736,1471,UNKNOWN,1.0,NEUTRAL,3,False,1.0,,,,,,,,,,,,,,,,,,,,,,,,,,,,,,,,
30,complete_category_learning_trial,5.0,2,1137,CLICKED,30,1607359711744,1607359715718,3974,NEUTRAL,3.0,NEUTRAL,3,True,1.0,,,,,,,,,,,,,,,,,,,,,,,,,,,,,,,,
30,complete_category_learning_trial,6.0,2,1431,CLICKED,30,1607359717723,1607359721586,3863,ASSUMED_HOSTILE,6.0,ASSUMED_HOSTILE,6,True,1.0,,,,,,,,,,,,,,,,,,,,,,,,,,,,,,,,
30,complete_category_learning_trial,7.0,2,1659,CLICKED,30,1607359723605,1607359726162,2557,FRIEND,2.0,FRIEND,2,True,1.0,,,,,,,,,,,,,,,,,,,,,,,,,,,,,,,,
30,complete_category_learning_trial,8.0,2,1857,CLICKED,30,1607359728185,1607359730119,1934,ASSUMED_FRIEND,5.0,ASSUMED_FRIEND,5,True,1.0,,,,,,,,,,,,,,,,,,,,,,,,,,,,,,,,
30,complete_category_learning_trial,9.0,2,2032,CLICKED,30,1607359732124,1607359733620,1496,HOSTILE,4.0,HOSTILE,4,True,1.0,,,,,,,,,,,,,,,,,,,,,,,,,,,,,,,,
30,complete_category_learning_trial,10.0,2,2408,TIMEOUT,30,1607359735623,NA,NA,ASSUMED_HOSTILE,6.0,NA,NA,False,1.0,,,,,,,,,,,,,,,,,,,,,,,,,,,,,,,,
30,complete_category_learning_trial,11.0,2,2523,CLICKED,30,1607359741132,1607359743432,2300,UNKNOWN,1.0,UNKNOWN,1,True,1.0,,,,,,,,,,,,,,,,,,,,,,,,,,,,,,,,
30,complete_category_learning_trial,12.0,2,2812,CLICKED,30,1607359745445,1607359749218,3773,NEUTRAL,3.0,ASSUMED_FRIEND,5,False,1.0,,,,,,,,,,,,,,,,,,,,,,,,,,,,,,,,
30,complete_category_learning_trial,13.0,2,2998,CLICKED,30,1607359751224,1607359752937,1713,NEUTRAL,3.0,NEUTRAL,3,True,1.0,,,,,,,,,,,,,,,,,,,,,,,,,,,,,,,,
30,complete_category_learning_trial,14.0,2,3202,CLICKED,30,1607359754944,1607359757014,2070,ASSUMED_FRIEND,5.0,ASSUMED_FRIEND,5,True,1.0,,,,,,,,,,,,,,,,,,,,,,,,,,,,,,,,
31,complete_category_learning_trial,1.0,2,325,TIMEOUT,31,1607359715320,NA,NA,ASSUMED_HOSTILE,6.0,NA,NA,False,1.0,,,,,,,,,,,,,,,,,,,,,,,,,,,,,,,,
31,complete_category_learning_trial,2.0,2,600,TIMEOUT,31,1607359720825,NA,NA,UNKNOWN,1.0,NA,NA,False,1.0,,,,,,,,,,,,,,,,,,,,,,,,,,,,,,,,
31,complete_category_learning_trial,3.0,2,720,CLICKED,31,1607359726326,1607359728735,2409,NEUTRAL,3.0,NEUTRAL,3,True,1.0,,,,,,,,,,,,,,,,,,,,,,,,,,,,,,,,
31,complete_category_learning_trial,4.0,2,974,CLICKED,31,1607359730759,1607359733815,3056,FRIEND,2.0,FRIEND,2,True,1.0,,,,,,,,,,,,,,,,,,,,,,,,,,,,,,,,
31,complete_category_learning_trial,5.0,2,1173,CLICKED,31,1607359735820,1607359737791,1971,HOSTILE,4.0,HOSTILE,4,True,1.0,,,,,,,,,,,,,,,,,,,,,,,,,,,,,,,,
31,complete_category_learning_trial,6.0,2,1365,CLICKED,31,1607359739800,1607359741623,1823,ASSUMED_FRIEND,5.0,NEUTRAL,3,False,1.0,,,,,,,,,,,,,,,,,,,,,,,,,,,,,,,,
31,complete_category_learning_trial,7.0,2,1552,CLICKED,31,1607359743640,1607359745367,1727,HOSTILE,4.0,HOSTILE,4,True,1.0,,,,,,,,,,,,,,,,,,,,,,,,,,,,,,,,
31,complete_category_learning_trial,8.0,2,1745,CLICKED,31,1607359747380,1607359749223,1843,NEUTRAL,3.0,FRIEND,2,False,1.0,,,,,,,,,,,,,,,,,,,,,,,,,,,,,,,,
31,complete_category_learning_trial,9.0,2,1958,CLICKED,31,1607359751239,1607359753487,2248,ASSUMED_HOSTILE,6.0,FRIEND,2,False,1.0,,,,,,,,,,,,,,,,,,,,,,,,,,,,,,,,
31,complete_category_learning_trial,10.0,2,2133,CLICKED,31,1607359755500,1607359756983,1483,FRIEND,2.0,FRIEND,2,True,1.0,,,,,,,,,,,,,,,,,,,,,,,,,,,,,,,,
31,complete_category_learning_trial,11.0,2,2336,CLICKED,31,1607359759000,1607359761055,2055,ASSUMED_FRIEND,5.0,NEUTRAL,3,False,1.0,,,,,,,,,,,,,,,,,,,,,,,,,,,,,,,,
31,complete_category_learning_trial,12.0,2,2492,CLICKED,31,1607359763060,1607359764159,1099,UNKNOWN,1.0,NEUTRAL,3,False,1.0,,,,,,,,,,,,,,,,,,,,,,,,,,,,,,,,
31,complete_category_learning_trial,13.0,2,2669,CLICKED,31,1607359766180,1607359767703,1523,UNKNOWN,1.0,UNKNOWN,1,True,1.0,,,,,,,,,,,,,,,,,,,,,,,,,,,,,,,,
31,complete_category_learning_trial,14.0,2,2870,CLICKED,31,1607359769719,1607359771719,2000,ASSUMED_HOSTILE,6.0,ASSUMED_HOSTILE,6,True,1.0,,,,,,,,,,,,,,,,,,,,,,,,,,,,,,,,
31,complete_category_learning_trial,15.0,2,3070,CLICKED,31,1607359773740,1607359775734,1994,FRIEND,2.0,NEUTRAL,3,False,1.0,,,,,,,,,,,,,,,,,,,,,,,,,,,,,,,,
31,complete_category_learning_trial,16.0,2,3239,CLICKED,31,1607359777740,1607359779119,1379,HOSTILE,4.0,HOSTILE,4,True,1.0,,,,,,,,,,,,,,,,,,,,,,,,,,,,,,,,
31,complete_category_learning_trial,17.0,2,3415,CLICKED,31,1607359781140,1607359782623,1483,NEUTRAL,3.0,NEUTRAL,3,True,1.0,,,,,,,,,,,,,,,,,,,,,,,,,,,,,,,,
31,complete_category_learning_trial,18.0,2,3613,CLICKED,31,1607359784639,1607359786599,1960,ASSUMED_FRIEND,5.0,ASSUMED_HOSTILE,6,False,1.0,,,,,,,,,,,,,,,,,,,,,,,,,,,,,,,,
31,complete_category_learning_trial,19.0,2,3782,CLICKED,31,1607359788619,1607359789967,1348,NEUTRAL,3.0,NEUTRAL,3,True,1.0,,,,,,,,,,,,,,,,,,,,,,,,,,,,,,,,
31,complete_category_learning_trial,20.0,2,3945,CLICKED,31,1607359791980,1607359793239,1259,HOSTILE,4.0,HOSTILE,4,True,1.0,,,,,,,,,,,,,,,,,,,,,,,,,,,,,,,,
31,complete_category_learning_trial,21.0,2,4149,CLICKED,31,1607359795260,1607359797310,2050,FRIEND,2.0,NEUTRAL,3,False,1.0,,,,,,,,,,,,,,,,,,,,,,,,,,,,,,,,
31,complete_category_learning_trial,22.0,2,4322,CLICKED,31,1607359799320,1607359800766,1446,UNKNOWN,1.0,UNKNOWN,1,True,1.0,,,,,,,,,,,,,,,,,,,,,,,,,,,,,,,,
31,complete_category_learning_trial,23.0,2,4532,CLICKED,31,1607359802779,1607359804967,2188,ASSUMED_HOSTILE,6.0,ASSUMED_FRIEND,5,False,1.0,,,,,,,,,,,,,,,,,,,,,,,,,,,,,,,,
31,complete_category_learning_trial,24.0,2,4737,CLICKED,31,1607359806979,1607359809062,2083,ASSUMED_FRIEND,5.0,ASSUMED_FRIEND,5,True,1.0,,,,,,,,,,,,,,,,,,,,,,,,,,,,,,,,
31,complete_category_learning_trial,25.0,2,4991,CLICKED,31,1607359811079,1607359814142,3063,NEUTRAL,3.0,NEUTRAL,3,True,1.0,,,,,,,,,,,,,,,,,,,,,,,,,,,,,,,,
31,complete_category_learning_trial,26.0,2,5139,CLICKED,31,1607359816159,1607359817103,944,UNKNOWN,1.0,UNKNOWN,1,True,1.0,,,,,,,,,,,,,,,,,,,,,,,,,,,,,,,,
31,complete_category_learning_trial,27.0,2,5289,CLICKED,31,1607359819120,1607359820111,991,ASSUMED_FRIEND,5.0,ASSUMED_HOSTILE,6,False,1.0,,,,,,,,,,,,,,,,,,,,,,,,,,,,,,,,
31,complete_category_learning_trial,28.0,2,5442,CLICKED,31,1607359822119,1607359823166,1047,HOSTILE,4.0,HOSTILE,4,True,1.0,,,,,,,,,,,,,,,,,,,,,,,,,,,,,,,,
31,complete_category_learning_trial,29.0,2,5679,CLICKED,31,1607359825180,1607359827911,2731,FRIEND,2.0,FRIEND,2,True,1.0,,,,,,,,,,,,,,,,,,,,,,,,,,,,,,,,
31,complete_category_learning_trial,30.0,2,5902,CLICKED,31,1607359829919,1607359832367,2448,ASSUMED_HOSTILE,6.0,ASSUMED_HOSTILE,6,True,1.0,,,,,,,,,,,,,,,,,,,,,,,,,,,,,,,,
31,complete_category_learning_trial,31.0,2,6034,CLICKED,31,1607359834379,1607359835014,635,ASSUMED_HOSTILE,6.0,ASSUMED_HOSTILE,6,True,1.0,,,,,,,,,,,,,,,,,,,,,,,,,,,,,,,,
32,complete_category_learning_trial,1.0,2,325,TIMEOUT,32,1607359719068,NA,NA,ASSUMED_HOSTILE,6.0,NA,NA,False,1.0,,,,,,,,,,,,,,,,,,,,,,,,,,,,,,,,
32,complete_category_learning_trial,2.0,2,492,CLICKED,32,1607359724566,1607359727905,3339,HOSTILE,4.0,ASSUMED_HOSTILE,6,False,1.0,,,,,,,,,,,,,,,,,,,,,,,,,,,,,,,,
32,complete_category_learning_trial,3.0,2,752,CLICKED,32,1607359729924,1607359733106,3182,NEUTRAL,3.0,NEUTRAL,3,True,1.0,,,,,,,,,,,,,,,,,,,,,,,,,,,,,,,,
32,complete_category_learning_trial,4.0,2,1003,CLICKED,32,1607359735124,1607359738128,3004,ASSUMED_FRIEND,5.0,UNKNOWN,1,False,1.0,,,,,,,,,,,,,,,,,,,,,,,,,,,,,,,,
32,complete_category_learning_trial,5.0,2,1271,CLICKED,32,1607359740142,1607359743501,3359,FRIEND,2.0,FRIEND,2,True,1.0,,,,,,,,,,,,,,,,,,,,,,,,,,,,,,,,
32,complete_category_learning_trial,6.0,2,1475,CLICKED,32,1607359745524,1607359747578,2054,UNKNOWN,1.0,UNKNOWN,1,True,1.0,,,,,,,,,,,,,,,,,,,,,,,,,,,,,,,,
32,complete_category_learning_trial,7.0,2,1723,CLICKED,32,1607359749583,1607359752533,2950,NEUTRAL,3.0,NEUTRAL,3,True,1.0,,,,,,,,,,,,,,,,,,,,,,,,,,,,,,,,
32,complete_category_learning_trial,8.0,2,1928,CLICKED,32,1607359754544,1607359756636,2092,HOSTILE,4.0,HOSTILE,4,True,1.0,,,,,,,,,,,,,,,,,,,,,,,,,,,,,,,,
32,complete_category_learning_trial,9.0,2,2112,CLICKED,32,1607359758642,1607359760321,1679,UNKNOWN,1.0,UNKNOWN,1,True,1.0,,,,,,,,,,,,,,,,,,,,,,,,,,,,,,,,
32,complete_category_learning_trial,10.0,2,2418,CLICKED,32,1607359762343,1607359766442,4099,ASSUMED_FRIEND,5.0,ASSUMED_FRIEND,5,True,1.0,,,,,,,,,,,,,,,,,,,,,,,,,,,,,,,,
32,complete_category_learning_trial,11.0,2,2679,CLICKED,32,1607359768463,1607359771649,3186,ASSUMED_HOSTILE,6.0,ASSUMED_HOSTILE,6,True,1.0,,,,,,,,,,,,,,,,,,,,,,,,,,,,,,,,
33,complete_category_learning_trial,1.0,2,325,TIMEOUT,33,1607359734748,NA,NA,ASSUMED_HOSTILE,6.0,NA,NA,False,1.0,,,,,,,,,,,,,,,,,,,,,,,,,,,,,,,,
33,complete_category_learning_trial,2.0,2,421,CLICKED,33,1607359740261,1607359742183,1922,ASSUMED_FRIEND,5.0,HOSTILE,4,False,1.0,,,,,,,,,,,,,,,,,,,,,,,,,,,,,,,,
33,complete_category_learning_trial,3.0,2,639,CLICKED,33,1607359744207,1607359746531,2324,FRIEND,2.0,FRIEND,2,True,1.0,,,,,,,,,,,,,,,,,,,,,,,,,,,,,,,,
33,complete_category_learning_trial,4.0,2,839,CLICKED,33,1607359748548,1607359750532,1984,HOSTILE,4.0,HOSTILE,4,True,1.0,,,,,,,,,,,,,,,,,,,,,,,,,,,,,,,,
33,complete_category_learning_trial,5.0,2,998,CLICKED,33,1607359752548,1607359753713,1165,UNKNOWN,1.0,NEUTRAL,3,False,1.0,,,,,,,,,,,,,,,,,,,,,,,,,,,,,,,,
33,complete_category_learning_trial,6.0,2,1235,CLICKED,33,1607359755727,1607359758450,2723,NEUTRAL,3.0,FRIEND,2,False,1.0,,,,,,,,,,,,,,,,,,,,,,,,,,,,,,,,
33,complete_category_learning_trial,7.0,2,1406,CLICKED,33,1607359760467,1607359761885,1418,FRIEND,2.0,ASSUMED_FRIEND,5,False,1.0,,,,,,,,,,,,,,,,,,,,,,,,,,,,,,,,
33,complete_category_learning_trial,8.0,2,1664,CLICKED,33,1607359763907,1607359767040,3133,HOSTILE,4.0,HOSTILE,4,True,1.0,,,,,,,,,,,,,,,,,,,,,,,,,,,,,,,,
33,complete_category_learning_trial,9.0,2,1816,CLICKED,33,1607359769047,1607359770070,1023,NEUTRAL,3.0,NEUTRAL,3,True,1.0,,,,,,,,,,,,,,,,,,,,,,,,,,,,,,,,
33,complete_category_learning_trial,10.0,2,1991,CLICKED,33,1607359772087,1607359773573,1486,UNKNOWN,1.0,UNKNOWN,1,True,1.0,,,,,,,,,,,,,,,,,,,,,,,,,,,,,,,,
33,complete_category_learning_trial,11.0,2,2204,CLICKED,33,1607359775587,1607359777829,2242,ASSUMED_FRIEND,5.0,ASSUMED_HOSTILE,6,False,1.0,,,,,,,,,,,,,,,,,,,,,,,,,,,,,,,,
33,complete_category_learning_trial,12.0,2,2386,CLICKED,33,1607359779847,1607359781479,1632,ASSUMED_HOSTILE,6.0,ASSUMED_HOSTILE,6,True,1.0,,,,,,,,,,,,,,,,,,,,,,,,,,,,,,,,
33,complete_category_learning_trial,13.0,2,2549,CLICKED,33,1607359783487,1607359784745,1258,HOSTILE,4.0,HOSTILE,4,True,1.0,,,,,,,,,,,,,,,,,,,,,,,,,,,,,,,,
33,complete_category_learning_trial,14.0,2,2736,CLICKED,33,1607359786768,1607359788482,1714,FRIEND,2.0,NEUTRAL,3,False,1.0,,,,,,,,,,,,,,,,,,,,,,,,,,,,,,,,
33,complete_category_learning_trial,15.0,2,2880,CLICKED,33,1607359790487,1607359791362,875,UNKNOWN,1.0,UNKNOWN,1,True,1.0,,,,,,,,,,,,,,,,,,,,,,,,,,,,,,,,
33,complete_category_learning_trial,16.0,2,3122,CLICKED,33,1607359793367,1607359796196,2829,ASSUMED_HOSTILE,6.0,ASSUMED_HOSTILE,6,True,1.0,,,,,,,,,,,,,,,,,,,,,,,,,,,,,,,,
33,complete_category_learning_trial,17.0,2,3374,CLICKED,33,1607359798207,1607359801243,3036,ASSUMED_FRIEND,5.0,ASSUMED_FRIEND,5,True,1.0,,,,,,,,,,,,,,,,,,,,,,,,,,,,,,,,
34,complete_category_learning_trial,1.0,2,266,CLICKED,34,1607359767928,1607359772253,4325,ASSUMED_FRIEND,5.0,NEUTRAL,3,False,1.0,,,,,,,,,,,,,,,,,,,,,,,,,,,,,,,,
34,complete_category_learning_trial,2.0,2,642,TIMEOUT,34,1607359774269,NA,NA,NEUTRAL,3.0,NA,NA,False,1.0,,,,,,,,,,,,,,,,,,,,,,,,,,,,,,,,
34,complete_category_learning_trial,3.0,2,779,CLICKED,34,1607359779774,1607359782512,2738,ASSUMED_HOSTILE,6.0,UNKNOWN,1,False,1.0,,,,,,,,,,,,,,,,,,,,,,,,,,,,,,,,
34,complete_category_learning_trial,4.0,2,1020,CLICKED,34,1607359784528,1607359787332,2804,FRIEND,2.0,NEUTRAL,3,False,1.0,,,,,,,,,,,,,,,,,,,,,,,,,,,,,,,,
34,complete_category_learning_trial,5.0,2,1199,CLICKED,34,1607359789348,1607359790925,1577,HOSTILE,4.0,HOSTILE,4,True,1.0,,,,,,,,,,,,,,,,,,,,,,,,,,,,,,,,
34,complete_category_learning_trial,6.0,2,1363,CLICKED,34,1607359792949,1607359794192,1243,UNKNOWN,1.0,ASSUMED_HOSTILE,6,False,1.0,,,,,,,,,,,,,,,,,,,,,,,,,,,,,,,,
34,complete_category_learning_trial,7.0,2,1526,CLICKED,34,1607359796207,1607359797453,1246,UNKNOWN,1.0,UNKNOWN,1,True,1.0,,,,,,,,,,,,,,,,,,,,,,,,,,,,,,,,
34,complete_category_learning_trial,8.0,2,1710,CLICKED,34,1607359799467,1607359801143,1676,NEUTRAL,3.0,ASSUMED_FRIEND,5,False,1.0,,,,,,,,,,,,,,,,,,,,,,,,,,,,,,,,
34,complete_category_learning_trial,9.0,2,1904,CLICKED,34,1607359803148,1607359805008,1860,HOSTILE,4.0,HOSTILE,4,True,1.0,,,,,,,,,,,,,,,,,,,,,,,,,,,,,,,,
34,complete_category_learning_trial,10.0,2,2106,CLICKED,34,1607359807028,1607359809048,2020,ASSUMED_FRIEND,5.0,ASSUMED_FRIEND,5,True,1.0,,,,,,,,,,,,,,,,,,,,,,,,,,,,,,,,
34,complete_category_learning_trial,11.0,2,2279,CLICKED,34,1607359811068,1607359812509,1441,FRIEND,2.0,NEUTRAL,3,False,1.0,,,,,,,,,,,,,,,,,,,,,,,,,,,,,,,,
34,complete_category_learning_trial,12.0,2,2445,CLICKED,34,1607359814527,1607359815840,1313,ASSUMED_HOSTILE,6.0,UNKNOWN,1,False,1.0,,,,,,,,,,,,,,,,,,,,,,,,,,,,,,,,
34,complete_category_learning_trial,13.0,2,2664,CLICKED,34,1607359817849,1607359820223,2374,NEUTRAL,3.0,NEUTRAL,3,True,1.0,,,,,,,,,,,,,,,,,,,,,,,,,,,,,,,,
34,complete_category_learning_trial,14.0,2,2875,CLICKED,34,1607359822228,1607359824439,2211,ASSUMED_FRIEND,5.0,ASSUMED_FRIEND,5,True,1.0,,,,,,,,,,,,,,,,,,,,,,,,,,,,,,,,
34,complete_category_learning_trial,15.0,2,3071,CLICKED,34,1607359826449,1607359828358,1909,ASSUMED_HOSTILE,6.0,ASSUMED_HOSTILE,6,True,1.0,,,,,,,,,,,,,,,,,,,,,,,,,,,,,,,,
34,complete_category_learning_trial,16.0,2,3222,CLICKED,34,1607359830368,1607359831375,1007,FRIEND,2.0,FRIEND,2,True,1.0,,,,,,,,,,,,,,,,,,,,,,,,,,,,,,,,
34,complete_category_learning_trial,17.0,2,3421,CLICKED,34,1607359833388,1607359835365,1977,UNKNOWN,1.0,NEUTRAL,3,False,1.0,,,,,,,,,,,,,,,,,,,,,,,,,,,,,,,,
34,complete_category_learning_trial,18.0,2,3617,CLICKED,34,1607359837388,1607359839282,1894,HOSTILE,4.0,HOSTILE,4,True,1.0,,,,,,,,,,,,,,,,,,,,,,,,,,,,,,,,
34,complete_category_learning_trial,19.0,2,3790,CLICKED,34,1607359841288,1607359842738,1450,UNKNOWN,1.0,UNKNOWN,1,True,1.0,,,,,,,,,,,,,,,,,,,,,,,,,,,,,,,,
34,complete_category_learning_trial,20.0,2,3936,CLICKED,34,1607359844747,1607359845665,918,ASSUMED_FRIEND,5.0,ASSUMED_FRIEND,5,True,1.0,,,,,,,,,,,,,,,,,,,,,,,,,,,,,,,,
34,complete_category_learning_trial,21.0,2,4074,CLICKED,34,1607359847689,1607359848427,738,FRIEND,2.0,FRIEND,2,True,1.0,,,,,,,,,,,,,,,,,,,,,,,,,,,,,,,,
35,complete_category_learning_trial,1.0,2,325,TIMEOUT,35,1607359774491,NA,NA,ASSUMED_HOSTILE,6.0,NA,NA,False,1.0,,,,,,,,,,,,,,,,,,,,,,,,,,,,,,,,
35,complete_category_learning_trial,2.0,2,600,TIMEOUT,35,1607359779997,NA,NA,HOSTILE,4.0,NA,NA,False,1.0,,,,,,,,,,,,,,,,,,,,,,,,,,,,,,,,
35,complete_category_learning_trial,3.0,2,686,CLICKED,35,1607359785496,1607359787220,1724,NEUTRAL,3.0,FRIEND,2,False,1.0,,,,,,,,,,,,,,,,,,,,,,,,,,,,,,,,
35,complete_category_learning_trial,4.0,2,863,CLICKED,35,1607359789230,1607359790760,1530,FRIEND,2.0,FRIEND,2,True,1.0,,,,,,,,,,,,,,,,,,,,,,,,,,,,,,,,
35,complete_category_learning_trial,5.0,2,1048,CLICKED,35,1607359792769,1607359794456,1687,ASSUMED_FRIEND,5.0,UNKNOWN,1,False,1.0,,,,,,,,,,,,,,,,,,,,,,,,,,,,,,,,
35,complete_category_learning_trial,6.0,2,1214,CLICKED,35,1607359796470,1607359797773,1303,UNKNOWN,1.0,UNKNOWN,1,True,1.0,,,,,,,,,,,,,,,,,,,,,,,,,,,,,,,,
35,complete_category_learning_trial,7.0,2,1350,CLICKED,35,1607359799791,1607359800506,715,UNKNOWN,1.0,UNKNOWN,1,True,1.0,,,,,,,,,,,,,,,,,,,,,,,,,,,,,,,,
35,complete_category_learning_trial,8.0,2,1544,CLICKED,35,1607359802532,1607359804380,1848,NEUTRAL,3.0,FRIEND,2,False,1.0,,,,,,,,,,,,,,,,,,,,,,,,,,,,,,,,
35,complete_category_learning_trial,9.0,2,1750,CLICKED,35,1607359806390,1607359808499,2109,ASSUMED_FRIEND,5.0,ASSUMED_HOSTILE,6,False,1.0,,,,,,,,,,,,,,,,,,,,,,,,,,,,,,,,
35,complete_category_learning_trial,10.0,2,1941,CLICKED,35,1607359810510,1607359812318,1808,HOSTILE,4.0,HOSTILE,4,True,1.0,,,,,,,,,,,,,,,,,,,,,,,,,,,,,,,,
35,complete_category_learning_trial,11.0,2,2109,CLICKED,35,1607359814331,1607359815679,1348,FRIEND,2.0,FRIEND,2,True,1.0,,,,,,,,,,,,,,,,,,,,,,,,,,,,,,,,
35,complete_category_learning_trial,12.0,2,2302,CLICKED,35,1607359817691,1607359819546,1855,ASSUMED_HOSTILE,6.0,ASSUMED_HOSTILE,6,True,1.0,,,,,,,,,,,,,,,,,,,,,,,,,,,,,,,,
35,complete_category_learning_trial,13.0,2,2523,CLICKED,35,1607359821551,1607359823962,2411,ASSUMED_FRIEND,5.0,ASSUMED_FRIEND,5,True,1.0,,,,,,,,,,,,,,,,,,,,,,,,,,,,,,,,
35,complete_category_learning_trial,14.0,2,2682,CLICKED,35,1607359825972,1607359827131,1159,HOSTILE,4.0,HOSTILE,4,True,1.0,,,,,,,,,,,,,,,,,,,,,,,,,,,,,,,,
35,complete_category_learning_trial,15.0,2,2832,CLICKED,35,1607359829150,1607359830136,986,FRIEND,2.0,FRIEND,2,True,1.0,,,,,,,,,,,,,,,,,,,,,,,,,,,,,,,,
36,complete_category_learning_trial,1.0,2,285,CLICKED,36,1607359926533,1607359931234,4701,ASSUMED_HOSTILE,6.0,ASSUMED_FRIEND,5,False,1.0,,,,,,,,,,,,,,,,,,,,,,,,,,,,,,,,
36,complete_category_learning_trial,2.0,2,561,CLICKED,36,1607359933252,1607359936761,3509,FRIEND,2.0,FRIEND,2,True,1.0,,,,,,,,,,,,,,,,,,,,,,,,,,,,,,,,
36,complete_category_learning_trial,3.0,2,761,CLICKED,36,1607359938772,1607359940765,1993,HOSTILE,4.0,HOSTILE,4,True,1.0,,,,,,,,,,,,,,,,,,,,,,,,,,,,,,,,
36,complete_category_learning_trial,4.0,2,979,CLICKED,36,1607359942774,1607359945114,2340,NEUTRAL,3.0,NEUTRAL,3,True,1.0,,,,,,,,,,,,,,,,,,,,,,,,,,,,,,,,
36,complete_category_learning_trial,5.0,2,1204,CLICKED,36,1607359947132,1607359949624,2492,UNKNOWN,1.0,UNKNOWN,1,True,1.0,,,,,,,,,,,,,,,,,,,,,,,,,,,,,,,,
36,complete_category_learning_trial,6.0,2,1580,TIMEOUT,36,1607359951633,NA,NA,ASSUMED_FRIEND,5.0,NA,NA,False,1.0,,,,,,,,,,,,,,,,,,,,,,,,,,,,,,,,
36,complete_category_learning_trial,7.0,2,1714,CLICKED,36,1607359957137,1607359959823,2686,FRIEND,2.0,FRIEND,2,True,1.0,,,,,,,,,,,,,,,,,,,,,,,,,,,,,,,,
36,complete_category_learning_trial,8.0,2,1873,CLICKED,36,1607359961832,1607359963011,1179,ASSUMED_FRIEND,5.0,ASSUMED_FRIEND,5,True,1.0,,,,,,,,,,,,,,,,,,,,,,,,,,,,,,,,
36,complete_category_learning_trial,9.0,2,2040,CLICKED,36,1607359965032,1607359966346,1314,ASSUMED_HOSTILE,6.0,ASSUMED_HOSTILE,6,True,1.0,,,,,,,,,,,,,,,,,,,,,,,,,,,,,,,,
36,complete_category_learning_trial,10.0,2,2255,CLICKED,36,1607359968353,1607359970640,2287,UNKNOWN,1.0,UNKNOWN,1,True,1.0,,,,,,,,,,,,,,,,,,,,,,,,,,,,,,,,
37,complete_category_learning_trial,1.0,2,325,TIMEOUT,37,1607359994456,NA,NA,NEUTRAL,3.0,NA,NA,False,1.0,,,,,,,,,,,,,,,,,,,,,,,,,,,,,,,,
37,complete_category_learning_trial,2.0,2,488,CLICKED,37,1607359999963,1607360003212,3249,ASSUMED_HOSTILE,6.0,HOSTILE,4,False,1.0,,,,,,,,,,,,,,,,,,,,,,,,,,,,,,,,
37,complete_category_learning_trial,3.0,2,865,TIMEOUT,37,1607360005253,NA,NA,FRIEND,2.0,NA,NA,False,1.0,,,,,,,,,,,,,,,,,,,,,,,,,,,,,,,,
37,complete_category_learning_trial,4.0,2,1100,CLICKED,37,1607360010763,1607360015461,4698,UNKNOWN,1.0,NEUTRAL,3,False,1.0,,,,,,,,,,,,,,,,,,,,,,,,,,,,,,,,
37,complete_category_learning_trial,5.0,2,1375,CLICKED,37,1607360017494,1607360020965,3471,ASSUMED_FRIEND,5.0,ASSUMED_HOSTILE,6,False,1.0,,,,,,,,,,,,,,,,,,,,,,,,,,,,,,,,
37,complete_category_learning_trial,6.0,2,1573,CLICKED,37,1607360022994,1607360024923,1929,HOSTILE,4.0,HOSTILE,4,True,1.0,,,,,,,,,,,,,,,,,,,,,,,,,,,,,,,,
37,complete_category_learning_trial,7.0,2,1835,CLICKED,37,1607360026952,1607360030166,3214,UNKNOWN,1.0,ASSUMED_FRIEND,5,False,1.0,,,,,,,,,,,,,,,,,,,,,,,,,,,,,,,,
37,complete_category_learning_trial,8.0,2,2044,CLICKED,37,1607360032193,1607360034333,2140,NEUTRAL,3.0,FRIEND,2,False,1.0,,,,,,,,,,,,,,,,,,,,,,,,,,,,,,,,
37,complete_category_learning_trial,9.0,2,2236,CLICKED,37,1607360036354,1607360038188,1834,HOSTILE,4.0,HOSTILE,4,True,1.0,,,,,,,,,,,,,,,,,,,,,,,,,,,,,,,,
37,complete_category_learning_trial,10.0,2,2452,CLICKED,37,1607360040212,1607360042496,2284,ASSUMED_FRIEND,5.0,ASSUMED_HOSTILE,6,False,1.0,,,,,,,,,,,,,,,,,,,,,,,,,,,,,,,,
37,complete_category_learning_trial,11.0,2,2660,CLICKED,37,1607360044512,1607360046660,2148,FRIEND,2.0,FRIEND,2,True,1.0,,,,,,,,,,,,,,,,,,,,,,,,,,,,,,,,
37,complete_category_learning_trial,12.0,2,2886,CLICKED,37,1607360048674,1607360051186,2512,ASSUMED_HOSTILE,6.0,ASSUMED_FRIEND,5,False,1.0,,,,,,,,,,,,,,,,,,,,,,,,,,,,,,,,
37,complete_category_learning_trial,13.0,2,3129,CLICKED,37,1607360053213,1607360056032,2819,ASSUMED_FRIEND,5.0,ASSUMED_FRIEND,5,True,1.0,,,,,,,,,,,,,,,,,,,,,,,,,,,,,,,,
37,complete_category_learning_trial,14.0,2,3368,CLICKED,37,1607360058052,1607360060826,2774,ASSUMED_HOSTILE,6.0,ASSUMED_HOSTILE,6,True,1.0,,,,,,,,,,,,,,,,,,,,,,,,,,,,,,,,
37,complete_category_learning_trial,15.0,2,3576,CLICKED,37,1607360062855,1607360064981,2126,NEUTRAL,3.0,NEUTRAL,3,True,1.0,,,,,,,,,,,,,,,,,,,,,,,,,,,,,,,,
37,complete_category_learning_trial,16.0,2,3747,CLICKED,37,1607360066993,1607360068398,1405,HOSTILE,4.0,HOSTILE,4,True,1.0,,,,,,,,,,,,,,,,,,,,,,,,,,,,,,,,
37,complete_category_learning_trial,17.0,2,3951,CLICKED,37,1607360070415,1607360072483,2068,UNKNOWN,1.0,UNKNOWN,1,True,1.0,,,,,,,,,,,,,,,,,,,,,,,,,,,,,,,,
37,complete_category_learning_trial,18.0,2,4165,CLICKED,37,1607360074513,1607360076759,2246,FRIEND,2.0,FRIEND,2,True,1.0,,,,,,,,,,,,,,,,,,,,,,,,,,,,,,,,
38,complete_category_learning_trial,1.0,2,317,TIMEOUT,38,1607360033561,NA,NA,NEUTRAL,3.0,NA,NA,False,1.0,,,,,,,,,,,,,,,,,,,,,,,,,,,,,,,,
38,complete_category_learning_trial,2.0,2,435,CLICKED,38,1607360042236,1607360045630,3394,HOSTILE,4.0,HOSTILE,4,True,1.0,,,,,,,,,,,,,,,,,,,,,,,,,,,,,,,,
38,complete_category_learning_trial,3.0,2,587,CLICKED,38,1607360047669,1607360050375,2706,ASSUMED_HOSTILE,6.0,UNKNOWN,1,False,1.0,,,,,,,,,,,,,,,,,,,,,,,,,,,,,,,,
38,complete_category_learning_trial,4.0,2,780,CLICKED,38,1607360052412,1607360056462,4050,ASSUMED_FRIEND,5.0,ASSUMED_FRIEND,5,True,1.0,,,,,,,,,,,,,,,,,,,,,,,,,,,,,,,,
38,complete_category_learning_trial,5.0,2,938,CLICKED,38,1607360058500,1607360061441,2941,UNKNOWN,1.0,UNKNOWN,1,True,1.0,,,,,,,,,,,,,,,,,,,,,,,,,,,,,,,,
38,complete_category_learning_trial,6.0,2,1110,CLICKED,38,1607360063484,1607360066972,3488,FRIEND,2.0,FRIEND,2,True,1.0,,,,,,,,,,,,,,,,,,,,,,,,,,,,,,,,
38,complete_category_learning_trial,7.0,2,1242,CLICKED,38,1607360069031,1607360071152,2121,NEUTRAL,3.0,HOSTILE,4,False,1.0,,,,,,,,,,,,,,,,,,,,,,,,,,,,,,,,
38,complete_category_learning_trial,8.0,2,1363,CLICKED,38,1607360073174,1607360075118,1944,FRIEND,2.0,FRIEND,2,True,1.0,,,,,,,,,,,,,,,,,,,,,,,,,,,,,,,,
38,complete_category_learning_trial,9.0,2,1528,CLICKED,38,1607360077154,1607360080512,3358,ASSUMED_FRIEND,5.0,UNKNOWN,1,False,1.0,,,,,,,,,,,,,,,,,,,,,,,,,,,,,,,,
38,complete_category_learning_trial,10.0,2,1727,CLICKED,38,1607360082539,1607360086954,4415,ASSUMED_HOSTILE,6.0,ASSUMED_HOSTILE,6,True,1.0,,,,,,,,,,,,,,,,,,,,,,,,,,,,,,,,
38,complete_category_learning_trial,11.0,2,1909,CLICKED,38,1607360088989,1607360092746,3757,HOSTILE,4.0,UNKNOWN,1,False,1.0,,,,,,,,,,,,,,,,,,,,,,,,,,,,,,,,
38,complete_category_learning_trial,12.0,2,2145,CLICKED,38,1607360094775,1607360099847,72,UNKNOWN,1.0,UNKNOWN,1,True,1.0,,,,,,,,,,,,,,,,,,,,,,,,,,,,,,,,
38,complete_category_learning_trial,13.0,2,2264,CLICKED,38,1607360101883,1607360103674,1791,ASSUMED_FRIEND,5.0,FRIEND,2,False,1.0,,,,,,,,,,,,,,,,,,,,,,,,,,,,,,,,
38,complete_category_learning_trial,14.0,2,2377,CLICKED,38,1607360105703,1607360107338,1635,ASSUMED_HOSTILE,6.0,FRIEND,2,False,1.0,,,,,,,,,,,,,,,,,,,,,,,,,,,,,,,,
38,complete_category_learning_trial,15.0,2,2542,CLICKED,38,1607360109372,1607360112622,3250,NEUTRAL,3.0,HOSTILE,4,False,1.0,,,,,,,,,,,,,,,,,,,,,,,,,,,,,,,,
38,complete_category_learning_trial,16.0,2,2734,CLICKED,38,1607360114654,1607360118748,4094,UNKNOWN,1.0,UNKNOWN,1,True,1.0,,,,,,,,,,,,,,,,,,,,,,,,,,,,,,,,
38,complete_category_learning_trial,17.0,2,2939,CLICKED,38,1607360120798,1607360125279,4481,HOSTILE,4.0,HOSTILE,4,True,1.0,,,,,,,,,,,,,,,,,,,,,,,,,,,,,,,,
38,complete_category_learning_trial,18.0,2,3110,CLICKED,38,1607360127295,1607360130691,3396,FRIEND,2.0,ASSUMED_HOSTILE,6,False,1.0,,,,,,,,,,,,,,,,,,,,,,,,,,,,,,,,
38,complete_category_learning_trial,19.0,2,3344,CLICKED,38,1607360132727,1607360138063,336,NEUTRAL,3.0,HOSTILE,4,False,1.0,,,,,,,,,,,,,,,,,,,,,,,,,,,,,,,,
38,complete_category_learning_trial,20.0,2,3628,CLICKED,38,1607360140120,1607360146959,1839,UNKNOWN,1.0,UNKNOWN,1,True,1.0,,,,,,,,,,,,,,,,,,,,,,,,,,,,,,,,
38,complete_category_learning_trial,21.0,2,3802,CLICKED,38,1607360149015,1607360152621,3606,ASSUMED_HOSTILE,6.0,ASSUMED_FRIEND,5,False,1.0,,,,,,,,,,,,,,,,,,,,,,,,,,,,,,,,
38,complete_category_learning_trial,22.0,2,3929,CLICKED,38,1607360154658,1607360156771,2113,HOSTILE,4.0,HOSTILE,4,True,1.0,,,,,,,,,,,,,,,,,,,,,,,,,,,,,,,,
38,complete_category_learning_trial,23.0,2,4078,CLICKED,38,1607360158805,1607360161665,2860,ASSUMED_FRIEND,5.0,FRIEND,2,False,1.0,,,,,,,,,,,,,,,,,,,,,,,,,,,,,,,,
38,complete_category_learning_trial,24.0,2,4208,CLICKED,38,1607360163689,1607360165877,2188,FRIEND,2.0,FRIEND,2,True,1.0,,,,,,,,,,,,,,,,,,,,,,,,,,,,,,,,
38,complete_category_learning_trial,25.0,2,4309,CLICKED,38,1607360167915,1607360169188,1273,FRIEND,2.0,FRIEND,2,True,1.0,,,,,,,,,,,,,,,,,,,,,,,,,,,,,,,,
38,complete_category_learning_trial,26.0,2,4517,CLICKED,38,1607360171206,1607360175766,4560,NEUTRAL,3.0,NEUTRAL,3,True,1.0,,,,,,,,,,,,,,,,,,,,,,,,,,,,,,,,
38,complete_category_learning_trial,27.0,2,4635,CLICKED,38,1607360177791,1607360179596,1805,HOSTILE,4.0,HOSTILE,4,True,1.0,,,,,,,,,,,,,,,,,,,,,,,,,,,,,,,,
38,complete_category_learning_trial,28.0,2,4845,CLICKED,38,1607360181629,1607360186345,4716,ASSUMED_HOSTILE,6.0,ASSUMED_HOSTILE,6,True,1.0,,,,,,,,,,,,,,,,,,,,,,,,,,,,,,,,
38,complete_category_learning_trial,29.0,2,4996,CLICKED,38,1607360188381,1607360191289,2908,UNKNOWN,1.0,UNKNOWN,1,True,1.0,,,,,,,,,,,,,,,,,,,,,,,,,,,,,,,,
39,complete_category_learning_trial,1.0,2,208,CLICKED,39,1607360107620,1607360111470,3850,ASSUMED_FRIEND,5.0,FRIEND,2,False,1.0,,,,,,,,,,,,,,,,,,,,,,,,,,,,,,,,
39,complete_category_learning_trial,2.0,2,440,CLICKED,39,1607360113556,1607360116760,3204,FRIEND,2.0,FRIEND,2,True,1.0,,,,,,,,,,,,,,,,,,,,,,,,,,,,,,,,
39,complete_category_learning_trial,3.0,2,643,CLICKED,39,1607360118776,1607360121372,2596,ASSUMED_HOSTILE,6.0,ASSUMED_HOSTILE,6,True,1.0,,,,,,,,,,,,,,,,,,,,,,,,,,,,,,,,
39,complete_category_learning_trial,4.0,2,824,CLICKED,39,1607360123466,1607360125654,2188,NEUTRAL,3.0,NEUTRAL,3,True,1.0,,,,,,,,,,,,,,,,,,,,,,,,,,,,,,,,
39,complete_category_learning_trial,5.0,2,1036,CLICKED,39,1607360127676,1607360129983,2307,HOSTILE,4.0,HOSTILE,4,True,1.0,,,,,,,,,,,,,,,,,,,,,,,,,,,,,,,,
39,complete_category_learning_trial,6.0,2,1355,CLICKED,39,1607360131998,1607360136559,4561,UNKNOWN,1.0,ASSUMED_HOSTILE,6,False,1.0,,,,,,,,,,,,,,,,,,,,,,,,,,,,,,,,
39,complete_category_learning_trial,7.0,2,1567,CLICKED,39,1607360138644,1607360141243,2599,NEUTRAL,3.0,NEUTRAL,3,True,1.0,,,,,,,,,,,,,,,,,,,,,,,,,,,,,,,,
39,complete_category_learning_trial,8.0,2,1752,CLICKED,39,1607360143257,1607360145187,1930,UNKNOWN,1.0,UNKNOWN,1,True,1.0,,,,,,,,,,,,,,,,,,,,,,,,,,,,,,,,
39,complete_category_learning_trial,9.0,2,1975,CLICKED,39,1607360147217,1607360150025,2808,HOSTILE,4.0,HOSTILE,4,True,1.0,,,,,,,,,,,,,,,,,,,,,,,,,,,,,,,,
39,complete_category_learning_trial,10.0,2,2347,TIMEOUT,39,1607360152035,NA,NA,ASSUMED_HOSTILE,6.0,NA,NA,False,1.0,,,,,,,,,,,,,,,,,,,,,,,,,,,,,,,,
39,complete_category_learning_trial,11.0,2,2442,CLICKED,39,1607360157907,1607360159817,1910,ASSUMED_FRIEND,5.0,FRIEND,2,False,1.0,,,,,,,,,,,,,,,,,,,,,,,,,,,,,,,,
39,complete_category_learning_trial,12.0,2,2591,CLICKED,39,1607360161835,1607360163041,1206,FRIEND,2.0,FRIEND,2,True,1.0,,,,,,,,,,,,,,,,,,,,,,,,,,,,,,,,
39,complete_category_learning_trial,13.0,2,2811,CLICKED,39,1607360165057,1607360167813,2756,FRIEND,2.0,FRIEND,2,True,1.0,,,,,,,,,,,,,,,,,,,,,,,,,,,,,,,,
39,complete_category_learning_trial,14.0,2,2967,CLICKED,39,1607360169857,1607360171245,1388,ASSUMED_FRIEND,5.0,ASSUMED_FRIEND,5,True,1.0,,,,,,,,,,,,,,,,,,,,,,,,,,,,,,,,
39,complete_category_learning_trial,15.0,2,3152,CLICKED,39,1607360173275,1607360175009,1734,NEUTRAL,3.0,NEUTRAL,3,True,1.0,,,,,,,,,,,,,,,,,,,,,,,,,,,,,,,,
39,complete_category_learning_trial,16.0,2,3329,CLICKED,39,1607360177078,1607360178864,1786,HOSTILE,4.0,HOSTILE,4,True,1.0,,,,,,,,,,,,,,,,,,,,,,,,,,,,,,,,
40,complete_category_learning_trial,1.0,2,325,TIMEOUT,40,1607361088695,NA,NA,HOSTILE,4.0,NA,NA,False,1.0,,,,,,,,,,,,,,,,,,,,,,,,,,,,,,,,
40,complete_category_learning_trial,2.0,2,493,CLICKED,40,1607361094206,1607361097562,3356,UNKNOWN,1.0,NEUTRAL,3,False,1.0,,,,,,,,,,,,,,,,,,,,,,,,,,,,,,,,
40,complete_category_learning_trial,3.0,2,838,CLICKED,40,1607361099572,1607361104462,4890,ASSUMED_FRIEND,5.0,ASSUMED_HOSTILE,6,False,1.0,,,,,,,,,,,,,,,,,,,,,,,,,,,,,,,,
40,complete_category_learning_trial,4.0,2,1031,CLICKED,40,1607361106473,1607361108330,1857,FRIEND,2.0,FRIEND,2,True,1.0,,,,,,,,,,,,,,,,,,,,,,,,,,,,,,,,
40,complete_category_learning_trial,5.0,2,1295,CLICKED,40,1607361110352,1607361113596,3244,NEUTRAL,3.0,ASSUMED_FRIEND,5,False,1.0,,,,,,,,,,,,,,,,,,,,,,,,,,,,,,,,
40,complete_category_learning_trial,6.0,2,1525,CLICKED,40,1607361115612,1607361118206,2594,ASSUMED_HOSTILE,6.0,ASSUMED_HOSTILE,6,True,1.0,,,,,,,,,,,,,,,,,,,,,,,,,,,,,,,,
40,complete_category_learning_trial,7.0,2,1710,CLICKED,40,1607361120233,1607361121908,1675,FRIEND,2.0,FRIEND,2,True,1.0,,,,,,,,,,,,,,,,,,,,,,,,,,,,,,,,
40,complete_category_learning_trial,8.0,2,1890,CLICKED,40,1607361123911,1607361125505,1594,UNKNOWN,1.0,UNKNOWN,1,True,1.0,,,,,,,,,,,,,,,,,,,,,,,,,,,,,,,,
40,complete_category_learning_trial,9.0,2,2172,CLICKED,40,1607361127513,1607361131144,3631,HOSTILE,4.0,ASSUMED_HOSTILE,6,False,1.0,,,,,,,,,,,,,,,,,,,,,,,,,,,,,,,,
40,complete_category_learning_trial,10.0,2,2413,CLICKED,40,1607361133152,1607361135967,2815,ASSUMED_FRIEND,5.0,ASSUMED_HOSTILE,6,False,1.0,,,,,,,,,,,,,,,,,,,,,,,,,,,,,,,,
40,complete_category_learning_trial,11.0,2,2750,CLICKED,40,1607361137973,1607361142692,4719,NEUTRAL,3.0,NEUTRAL,3,True,1.0,,,,,,,,,,,,,,,,,,,,,,,,,,,,,,,,
40,complete_category_learning_trial,12.0,2,3046,CLICKED,40,1607361144712,1607361148621,3909,ASSUMED_HOSTILE,6.0,ASSUMED_HOSTILE,6,True,1.0,,,,,,,,,,,,,,,,,,,,,,,,,,,,,,,,
40,complete_category_learning_trial,13.0,2,3194,CLICKED,40,1607361150632,1607361151579,947,ASSUMED_HOSTILE,6.0,ASSUMED_HOSTILE,6,True,1.0,,,,,,,,,,,,,,,,,,,,,,,,,,,,,,,,
40,complete_category_learning_trial,14.0,2,3508,CLICKED,40,1607361153592,1607361157862,4270,HOSTILE,4.0,HOSTILE,4,True,1.0,,,,,,,,,,,,,,,,,,,,,,,,,,,,,,,,
40,complete_category_learning_trial,15.0,2,3711,CLICKED,40,1607361159872,1607361161923,2051,ASSUMED_FRIEND,5.0,ASSUMED_FRIEND,5,True,1.0,,,,,,,,,,,,,,,,,,,,,,,,,,,,,,,,
41,complete_category_learning_trial,1.0,3,325,TIMEOUT,41,1607366517141,NA,NA,HOSTILE,4.0,NA,NA,False,1.0,,,,,,,,,,,,,,,,,,,,,,,,,,,,,,,,
41,complete_category_learning_trial,2.0,3,482,CLICKED,41,1607366522644,1607366525793,3149,FRIEND,2.0,NEUTRAL,3,False,1.0,,,,,,,,,,,,,,,,,,,,,,,,,,,,,,,,
41,complete_category_learning_trial,3.0,3,773,CLICKED,41,1607366527820,1607366531609,3789,ASSUMED_FRIEND,5.0,UNKNOWN,1,False,1.0,,,,,,,,,,,,,,,,,,,,,,,,,,,,,,,,
41,complete_category_learning_trial,4.0,3,1038,CLICKED,41,1607366533619,1607366536905,3286,UNKNOWN,1.0,ASSUMED_HOSTILE,6,False,1.0,,,,,,,,,,,,,,,,,,,,,,,,,,,,,,,,
41,complete_category_learning_trial,5.0,3,1414,TIMEOUT,41,1607366538920,NA,NA,ASSUMED_HOSTILE,6.0,NA,NA,False,1.0,,,,,,,,,,,,,,,,,,,,,,,,,,,,,,,,
41,complete_category_learning_trial,6.0,3,1689,TIMEOUT,41,1607366544423,NA,NA,NEUTRAL,3.0,NA,NA,False,1.0,,,,,,,,,,,,,,,,,,,,,,,,,,,,,,,,
41,complete_category_learning_trial,7.0,3,1900,CLICKED,41,1607366549922,1607366554145,4223,FRIEND,2.0,FRIEND,2,True,1.0,,,,,,,,,,,,,,,,,,,,,,,,,,,,,,,,
41,complete_category_learning_trial,8.0,3,2103,CLICKED,41,1607366556160,1607366558201,2041,UNKNOWN,1.0,UNKNOWN,1,True,1.0,,,,,,,,,,,,,,,,,,,,,,,,,,,,,,,,
41,complete_category_learning_trial,9.0,3,2303,CLICKED,41,1607366560220,1607366562209,1989,ASSUMED_FRIEND,5.0,ASSUMED_FRIEND,5,True,1.0,,,,,,,,,,,,,,,,,,,,,,,,,,,,,,,,
41,complete_category_learning_trial,10.0,3,2524,CLICKED,41,1607366564219,1607366566633,2414,HOSTILE,4.0,HOSTILE,4,True,1.0,,,,,,,,,,,,,,,,,,,,,,,,,,,,,,,,
41,complete_category_learning_trial,11.0,3,2698,CLICKED,41,1607366568639,1607366570113,1474,ASSUMED_HOSTILE,6.0,ASSUMED_HOSTILE,6,True,1.0,,,,,,,,,,,,,,,,,,,,,,,,,,,,,,,,
41,complete_category_learning_trial,12.0,3,2905,CLICKED,41,1607366572121,1607366574241,2120,NEUTRAL,3.0,NEUTRAL,3,True,1.0,,,,,,,,,,,,,,,,,,,,,,,,,,,,,,,,
41,complete_category_learning_trial,13.0,3,3059,CLICKED,41,1607366576261,1607366577321,1060,HOSTILE,4.0,HOSTILE,4,True,1.0,,,,,,,,,,,,,,,,,,,,,,,,,,,,,,,,
41,complete_category_learning_trial,14.0,3,3297,CLICKED,41,1607366579340,1607366582089,2749,FRIEND,2.0,NEUTRAL,3,False,1.0,,,,,,,,,,,,,,,,,,,,,,,,,,,,,,,,
41,complete_category_learning_trial,15.0,3,3473,CLICKED,41,1607366584100,1607366585609,1509,UNKNOWN,1.0,UNKNOWN,1,True,1.0,,,,,,,,,,,,,,,,,,,,,,,,,,,,,,,,
42,complete_category_learning_trial,1.0,3,325,TIMEOUT,42,1607366867379,NA,NA,NEUTRAL,3.0,NA,NA,False,1.0,,,,,,,,,,,,,,,,,,,,,,,,,,,,,,,,
42,complete_category_learning_trial,2.0,3,422,CLICKED,42,1607366872882,1607366874827,1945,UNKNOWN,1.0,NEUTRAL,3,False,1.0,,,,,,,,,,,,,,,,,,,,,,,,,,,,,,,,
42,complete_category_learning_trial,3.0,3,726,CLICKED,42,1607366876838,1607366880914,4076,FRIEND,2.0,FRIEND,2,True,1.0,,,,,,,,,,,,,,,,,,,,,,,,,,,,,,,,
42,complete_category_learning_trial,4.0,3,1018,CLICKED,42,1607366882918,1607366886746,3828,HOSTILE,4.0,HOSTILE,4,True,1.0,,,,,,,,,,,,,,,,,,,,,,,,,,,,,,,,
42,complete_category_learning_trial,5.0,3,1262,CLICKED,42,1607366888758,1607366891634,2876,ASSUMED_HOSTILE,6.0,ASSUMED_HOSTILE,6,True,1.0,,,,,,,,,,,,,,,,,,,,,,,,,,,,,,,,
42,complete_category_learning_trial,6.0,3,1445,CLICKED,42,1607366893659,1607366895283,1624,ASSUMED_FRIEND,5.0,ASSUMED_FRIEND,5,True,1.0,,,,,,,,,,,,,,,,,,,,,,,,,,,,,,,,
42,complete_category_learning_trial,7.0,3,1629,CLICKED,42,1607366897298,1607366898970,1672,NEUTRAL,3.0,UNKNOWN,1,False,1.0,,,,,,,,,,,,,,,,,,,,,,,,,,,,,,,,
42,complete_category_learning_trial,8.0,3,1801,CLICKED,42,1607366900979,1607366902411,1432,HOSTILE,4.0,HOSTILE,4,True,1.0,,,,,,,,,,,,,,,,,,,,,,,,,,,,,,,,
42,complete_category_learning_trial,9.0,3,1961,CLICKED,42,1607366904418,1607366905603,1185,UNKNOWN,1.0,NEUTRAL,3,False,1.0,,,,,,,,,,,,,,,,,,,,,,,,,,,,,,,,
42,complete_category_learning_trial,10.0,3,2198,CLICKED,42,1607366907618,1607366910354,2736,ASSUMED_HOSTILE,6.0,ASSUMED_HOSTILE,6,True,1.0,,,,,,,,,,,,,,,,,,,,,,,,,,,,,,,,
42,complete_category_learning_trial,11.0,3,2401,CLICKED,42,1607366912378,1607366914402,2024,FRIEND,2.0,FRIEND,2,True,1.0,,,,,,,,,,,,,,,,,,,,,,,,,,,,,,,,
42,complete_category_learning_trial,12.0,3,2552,CLICKED,42,1607366916418,1607366917426,1008,ASSUMED_FRIEND,5.0,ASSUMED_FRIEND,5,True,1.0,,,,,,,,,,,,,,,,,,,,,,,,,,,,,,,,
43,complete_category_learning_trial,1.0,3,158,CLICKED,43,1607366527281,1607366529446,2165,UNKNOWN,1.0,NEUTRAL,3,False,1.0,,,,,,,,,,,,,,,,,,,,,,,,,,,,,,,,
43,complete_category_learning_trial,2.0,3,432,CLICKED,43,1607366531462,1607366534926,3464,ASSUMED_FRIEND,5.0,FRIEND,2,False,1.0,,,,,,,,,,,,,,,,,,,,,,,,,,,,,,,,
43,complete_category_learning_trial,3.0,3,606,CLICKED,43,1607366536941,1607366538418,1477,HOSTILE,4.0,HOSTILE,4,True,1.0,,,,,,,,,,,,,,,,,,,,,,,,,,,,,,,,
43,complete_category_learning_trial,4.0,3,796,CLICKED,43,1607366540440,1607366542218,1778,NEUTRAL,3.0,NEUTRAL,3,True,1.0,,,,,,,,,,,,,,,,,,,,,,,,,,,,,,,,
43,complete_category_learning_trial,5.0,3,970,CLICKED,43,1607366544241,1607366545682,1441,ASSUMED_HOSTILE,6.0,ASSUMED_HOSTILE,6,True,1.0,,,,,,,,,,,,,,,,,,,,,,,,,,,,,,,,
43,complete_category_learning_trial,6.0,3,1132,CLICKED,43,1607366547702,1607366548938,1236,FRIEND,2.0,FRIEND,2,True,1.0,,,,,,,,,,,,,,,,,,,,,,,,,,,,,,,,
43,complete_category_learning_trial,7.0,3,1281,CLICKED,43,1607366550962,1607366551918,956,HOSTILE,4.0,HOSTILE,4,True,1.0,,,,,,,,,,,,,,,,,,,,,,,,,,,,,,,,
43,complete_category_learning_trial,8.0,3,1432,CLICKED,43,1607366553941,1607366554930,989,NEUTRAL,3.0,NEUTRAL,3,True,1.0,,,,,,,,,,,,,,,,,,,,,,,,,,,,,,,,
43,complete_category_learning_trial,9.0,3,1586,CLICKED,43,1607366556941,1607366558018,1077,UNKNOWN,1.0,UNKNOWN,1,True,1.0,,,,,,,,,,,,,,,,,,,,,,,,,,,,,,,,
43,complete_category_learning_trial,10.0,3,1738,CLICKED,43,1607366560041,1607366561058,1017,ASSUMED_FRIEND,5.0,ASSUMED_FRIEND,5,True,1.0,,,,,,,,,,,,,,,,,,,,,,,,,,,,,,,,
44,complete_category_learning_trial,1.0,3,283,CLICKED,44,1607366527338,1607366532009,4671,HOSTILE,4.0,HOSTILE,4,True,1.0,,,,,,,,,,,,,,,,,,,,,,,,,,,,,,,,
44,complete_category_learning_trial,2.0,3,660,TIMEOUT,44,1607366534035,NA,NA,ASSUMED_FRIEND,5.0,NA,NA,False,1.0,,,,,,,,,,,,,,,,,,,,,,,,,,,,,,,,
44,complete_category_learning_trial,3.0,3,728,CLICKED,44,1607366539540,1607366540896,1356,FRIEND,2.0,FRIEND,2,True,1.0,,,,,,,,,,,,,,,,,,,,,,,,,,,,,,,,
44,complete_category_learning_trial,4.0,3,949,CLICKED,44,1607366542915,1607366545328,2413,NEUTRAL,3.0,NEUTRAL,3,True,1.0,,,,,,,,,,,,,,,,,,,,,,,,,,,,,,,,
44,complete_category_learning_trial,5.0,3,1144,CLICKED,44,1607366547334,1607366549224,1890,UNKNOWN,1.0,UNKNOWN,1,True,1.0,,,,,,,,,,,,,,,,,,,,,,,,,,,,,,,,
44,complete_category_learning_trial,6.0,3,1327,CLICKED,44,1607366551235,1607366552888,1653,ASSUMED_HOSTILE,6.0,ASSUMED_HOSTILE,6,True,1.0,,,,,,,,,,,,,,,,,,,,,,,,,,,,,,,,
44,complete_category_learning_trial,7.0,3,1497,CLICKED,44,1607366554894,1607366556288,1394,FRIEND,2.0,FRIEND,2,True,1.0,,,,,,,,,,,,,,,,,,,,,,,,,,,,,,,,
44,complete_category_learning_trial,8.0,3,1683,CLICKED,44,1607366558294,1607366560001,1707,HOSTILE,4.0,HOSTILE,4,True,1.0,,,,,,,,,,,,,,,,,,,,,,,,,,,,,,,,
44,complete_category_learning_trial,9.0,3,1889,CLICKED,44,1607366562014,1607366564129,2115,ASSUMED_FRIEND,5.0,ASSUMED_FRIEND,5,True,1.0,,,,,,,,,,,,,,,,,,,,,,,,,,,,,,,,
44,complete_category_learning_trial,10.0,3,2055,CLICKED,44,1607366566156,1607366567441,1285,UNKNOWN,1.0,UNKNOWN,1,True,1.0,,,,,,,,,,,,,,,,,,,,,,,,,,,,,,,,
45,complete_category_learning_trial,1.0,3,325,TIMEOUT,45,1607366530466,NA,NA,ASSUMED_FRIEND,5.0,NA,NA,False,1.0,,,,,,,,,,,,,,,,,,,,,,,,,,,,,,,,
45,complete_category_learning_trial,2.0,3,447,CLICKED,45,1607366535974,1607366538412,2438,NEUTRAL,3.0,UNKNOWN,1,False,1.0,,,,,,,,,,,,,,,,,,,,,,,,,,,,,,,,
45,complete_category_learning_trial,3.0,3,597,CLICKED,45,1607366540426,1607366541418,992,FRIEND,2.0,HOSTILE,4,False,1.0,,,,,,,,,,,,,,,,,,,,,,,,,,,,,,,,
45,complete_category_learning_trial,4.0,3,773,CLICKED,45,1607366543426,1607366544934,1508,UNKNOWN,1.0,UNKNOWN,1,True,1.0,,,,,,,,,,,,,,,,,,,,,,,,,,,,,,,,
45,complete_category_learning_trial,5.0,3,1073,CLICKED,45,1607366546945,1607366550932,3987,HOSTILE,4.0,HOSTILE,4,True,1.0,,,,,,,,,,,,,,,,,,,,,,,,,,,,,,,,
45,complete_category_learning_trial,6.0,3,1231,CLICKED,45,1607366552947,1607366554089,1142,ASSUMED_HOSTILE,6.0,ASSUMED_HOSTILE,6,True,1.0,,,,,,,,,,,,,,,,,,,,,,,,,,,,,,,,
45,complete_category_learning_trial,7.0,3,1488,CLICKED,45,1607366556108,1607366559238,3130,NEUTRAL,3.0,NEUTRAL,3,True,1.0,,,,,,,,,,,,,,,,,,,,,,,,,,,,,,,,
45,complete_category_learning_trial,8.0,3,1658,CLICKED,45,1607366561247,1607366562637,1390,ASSUMED_HOSTILE,6.0,ASSUMED_HOSTILE,6,True,1.0,,,,,,,,,,,,,,,,,,,,,,,,,,,,,,,,
45,complete_category_learning_trial,9.0,3,1823,CLICKED,45,1607366564647,1607366565936,1289,HOSTILE,4.0,HOSTILE,4,True,1.0,,,,,,,,,,,,,,,,,,,,,,,,,,,,,,,,
45,complete_category_learning_trial,10.0,3,1996,CLICKED,45,1607366567946,1607366569405,1459,ASSUMED_FRIEND,5.0,ASSUMED_FRIEND,5,True,1.0,,,,,,,,,,,,,,,,,,,,,,,,,,,,,,,,
45,complete_category_learning_trial,11.0,3,2277,CLICKED,45,1607366571427,1607366575022,3595,UNKNOWN,1.0,UNKNOWN,1,True,1.0,,,,,,,,,,,,,,,,,,,,,,,,,,,,,,,,
46,complete_category_learning_trial,1.0,3,325,TIMEOUT,46,1607366562499,NA,NA,NEUTRAL,3.0,NA,NA,False,1.0,,,,,,,,,,,,,,,,,,,,,,,,,,,,,,,,
46,complete_category_learning_trial,2.0,3,600,TIMEOUT,46,1607366568005,NA,NA,ASSUMED_FRIEND,5.0,NA,NA,False,1.0,,,,,,,,,,,,,,,,,,,,,,,,,,,,,,,,
46,complete_category_learning_trial,3.0,3,731,CLICKED,46,1607366573505,1607366576123,2618,FRIEND,2.0,FRIEND,2,True,1.0,,,,,,,,,,,,,,,,,,,,,,,,,,,,,,,,
46,complete_category_learning_trial,4.0,3,998,CLICKED,46,1607366578137,1607366581459,3322,ASSUMED_HOSTILE,6.0,ASSUMED_HOSTILE,6,True,1.0,,,,,,,,,,,,,,,,,,,,,,,,,,,,,,,,
46,complete_category_learning_trial,5.0,3,1164,CLICKED,46,1607366583478,1607366584796,1318,HOSTILE,4.0,HOSTILE,4,True,1.0,,,,,,,,,,,,,,,,,,,,,,,,,,,,,,,,
46,complete_category_learning_trial,6.0,3,1324,CLICKED,46,1607366586819,1607366587997,1178,UNKNOWN,1.0,UNKNOWN,1,True,1.0,,,,,,,,,,,,,,,,,,,,,,,,,,,,,,,,
46,complete_category_learning_trial,7.0,3,1531,CLICKED,46,1607366590020,1607366592129,2109,ASSUMED_HOSTILE,6.0,ASSUMED_HOSTILE,6,True,1.0,,,,,,,,,,,,,,,,,,,,,,,,,,,,,,,,
46,complete_category_learning_trial,8.0,3,1713,CLICKED,46,1607366594139,1607366595759,1620,FRIEND,2.0,FRIEND,2,True,1.0,,,,,,,,,,,,,,,,,,,,,,,,,,,,,,,,
46,complete_category_learning_trial,9.0,3,2000,CLICKED,46,1607366597778,1607366601519,3741,NEUTRAL,3.0,NEUTRAL,3,True,1.0,,,,,,,,,,,,,,,,,,,,,,,,,,,,,,,,
46,complete_category_learning_trial,10.0,3,2169,CLICKED,46,1607366603539,1607366604893,1354,HOSTILE,4.0,HOSTILE,4,True,1.0,,,,,,,,,,,,,,,,,,,,,,,,,,,,,,,,
47,complete_category_learning_trial,1.0,3,216,CLICKED,47,1607366578963,1607366582294,3331,NEUTRAL,3.0,FRIEND,2,False,1.0,,,,,,,,,,,,,,,,,,,,,,,,,,,,,,,,
47,complete_category_learning_trial,2.0,3,417,CLICKED,47,1607366584321,1607366586317,1996,ASSUMED_HOSTILE,6.0,HOSTILE,4,False,1.0,,,,,,,,,,,,,,,,,,,,,,,,,,,,,,,,
47,complete_category_learning_trial,3.0,3,593,CLICKED,47,1607366588323,1607366589835,1512,ASSUMED_FRIEND,5.0,ASSUMED_FRIEND,5,True,1.0,,,,,,,,,,,,,,,,,,,,,,,,,,,,,,,,
47,complete_category_learning_trial,4.0,3,773,CLICKED,47,1607366591841,1607366593438,1597,UNKNOWN,1.0,UNKNOWN,1,True,1.0,,,,,,,,,,,,,,,,,,,,,,,,,,,,,,,,
47,complete_category_learning_trial,5.0,3,1047,CLICKED,47,1607366595441,1607366598913,3472,FRIEND,2.0,FRIEND,2,True,1.0,,,,,,,,,,,,,,,,,,,,,,,,,,,,,,,,
47,complete_category_learning_trial,6.0,3,1199,CLICKED,47,1607366600922,1607366601950,1028,HOSTILE,4.0,HOSTILE,4,True,1.0,,,,,,,,,,,,,,,,,,,,,,,,,,,,,,,,
47,complete_category_learning_trial,7.0,3,1354,CLICKED,47,1607366603962,1607366605053,1091,UNKNOWN,1.0,UNKNOWN,1,True,1.0,,,,,,,,,,,,,,,,,,,,,,,,,,,,,,,,
47,complete_category_learning_trial,8.0,3,1520,CLICKED,47,1607366607062,1607366608366,1304,ASSUMED_FRIEND,5.0,ASSUMED_FRIEND,5,True,1.0,,,,,,,,,,,,,,,,,,,,,,,,,,,,,,,,
47,complete_category_learning_trial,9.0,3,1678,CLICKED,47,1607366610381,1607366611528,1147,ASSUMED_HOSTILE,6.0,ASSUMED_HOSTILE,6,True,1.0,,,,,,,,,,,,,,,,,,,,,,,,,,,,,,,,
