id_participant,type,category_learning_trial,condition_experiment,tick,completed_by,participant_id,starting_time_trial,finishing_time_trial,reaction_time,category,category_id,category_selected,category_selected_id,correct,trained,practice_trial,iti_trial,previous_category_id,previous_category,selected_id,current_position_entity_selected_x,current_position_entity_selected_y,selected_entity_category_id,selected_entity_category,changed_entity_id,changed_entity_category_id,changed_entity_category,current_position_entity_changed_x,current_position_entity_changed_y,first_round,second_round,monitoring_trial,trial_no_change,from_category_id,to_category_id,selected_entity_id,HOSTILE_entities,NEUTRAL_entities,PENDING_entities,UNKNOWN_entities,FRIEND_entities,ASSUMED_FRIEND_entities,ASSUMED_HOSTILE_entities,UNCERTAIN_FRIEND_entities,UNCERTAIN_HOSTILE_entities,total_entities_second_round,round
2,complete_category_learning_trial,1.0,1,325,TIMEOUT,2,1606821837005,NA,NA,NEUTRAL,3.0,NA,NA,False,1.0,,,,,,,,,,,,,,,,,,,,,,,,,,,,,,,,
2,complete_category_learning_trial,2.0,1,444,CLICKED,2,1606821842513,1606821844917,2404,HOSTILE,4.0,HOSTILE,4,True,1.0,,,,,,,,,,,,,,,,,,,,,,,,,,,,,,,,
2,complete_category_learning_trial,3.0,1,649,CLICKED,2,1606821846954,1606821849020,2066,UNKNOWN,1.0,NEUTRAL,3,False,1.0,,,,,,,,,,,,,,,,,,,,,,,,,,,,,,,,
2,complete_category_learning_trial,4.0,1,878,CLICKED,2,1606821851052,1606821853588,2536,FRIEND,2.0,NEUTRAL,3,False,1.0,,,,,,,,,,,,,,,,,,,,,,,,,,,,,,,,
2,complete_category_learning_trial,5.0,1,1059,CLICKED,2,1606821855608,1606821857212,1604,HOSTILE,4.0,HOSTILE,4,True,1.0,,,,,,,,,,,,,,,,,,,,,,,,,,,,,,,,
2,complete_category_learning_trial,6.0,1,1258,CLICKED,2,1606821859226,1606821861205,1979,FRIEND,2.0,UNKNOWN,1,False,1.0,,,,,,,,,,,,,,,,,,,,,,,,,,,,,,,,
2,complete_category_learning_trial,7.0,1,1451,CLICKED,2,1606821863225,1606821865055,1830,NEUTRAL,3.0,FRIEND,2,False,1.0,,,,,,,,,,,,,,,,,,,,,,,,,,,,,,,,
2,complete_category_learning_trial,8.0,1,1715,CLICKED,2,1606821867092,1606821870328,3236,UNKNOWN,1.0,NEUTRAL,3,False,1.0,,,,,,,,,,,,,,,,,,,,,,,,,,,,,,,,
2,complete_category_learning_trial,9.0,1,1905,CLICKED,2,1606821872353,1606821874125,1772,UNKNOWN,1.0,UNKNOWN,1,True,1.0,,,,,,,,,,,,,,,,,,,,,,,,,,,,,,,,
2,complete_category_learning_trial,10.0,1,2079,CLICKED,2,1606821876153,1606821877616,1463,HOSTILE,4.0,HOSTILE,4,True,1.0,,,,,,,,,,,,,,,,,,,,,,,,,,,,,,,,
2,complete_category_learning_trial,11.0,1,2250,CLICKED,2,1606821879649,1606821881043,1394,FRIEND,2.0,FRIEND,2,True,1.0,,,,,,,,,,,,,,,,,,,,,,,,,,,,,,,,
2,complete_category_learning_trial,12.0,1,2417,CLICKED,2,1606821883071,1606821884381,1310,NEUTRAL,3.0,NEUTRAL,3,True,1.0,,,,,,,,,,,,,,,,,,,,,,,,,,,,,,,,
2,complete_category_learning_trial,13.0,1,2621,CLICKED,2,1606821886404,1606821888461,2057,FRIEND,2.0,FRIEND,2,True,1.0,,,,,,,,,,,,,,,,,,,,,,,,,,,,,,,,
2,complete_category_learning_trial,14.0,1,2802,CLICKED,2,1606821890485,1606821892076,1591,HOSTILE,4.0,HOSTILE,4,True,1.0,,,,,,,,,,,,,,,,,,,,,,,,,,,,,,,,
2,complete_category_learning_trial,15.0,1,3014,CLICKED,2,1606821894109,1606821896316,2207,NEUTRAL,3.0,NEUTRAL,3,True,1.0,,,,,,,,,,,,,,,,,,,,,,,,,,,,,,,,
2,complete_category_learning_trial,16.0,1,3189,CLICKED,2,1606821898351,1606821899809,1458,UNKNOWN,1.0,UNKNOWN,1,True,1.0,,,,,,,,,,,,,,,,,,,,,,,,,,,,,,,,
3,complete_category_learning_trial,1.0,1,325,TIMEOUT,3,1606821927611,NA,NA,HOSTILE,4.0,NA,NA,False,1.0,,,,,,,,,,,,,,,,,,,,,,,,,,,,,,,,
3,complete_category_learning_trial,2.0,1,456,CLICKED,3,1606821933114,1606821935739,2625,FRIEND,2.0,FRIEND,2,True,1.0,,,,,,,,,,,,,,,,,,,,,,,,,,,,,,,,
3,complete_category_learning_trial,3.0,1,628,CLICKED,3,1606821937751,1606821939179,1428,UNKNOWN,1.0,NEUTRAL,3,False,1.0,,,,,,,,,,,,,,,,,,,,,,,,,,,,,,,,
3,complete_category_learning_trial,4.0,1,788,CLICKED,3,1606821941190,1606821942387,1197,NEUTRAL,3.0,NEUTRAL,3,True,1.0,,,,,,,,,,,,,,,,,,,,,,,,,,,,,,,,
3,complete_category_learning_trial,5.0,1,936,CLICKED,3,1606821944391,1606821945347,956,NEUTRAL,3.0,NEUTRAL,3,True,1.0,,,,,,,,,,,,,,,,,,,,,,,,,,,,,,,,
3,complete_category_learning_trial,6.0,1,1087,CLICKED,3,1606821947351,1606821948355,1004,HOSTILE,4.0,HOSTILE,4,True,1.0,,,,,,,,,,,,,,,,,,,,,,,,,,,,,,,,
3,complete_category_learning_trial,7.0,1,1257,CLICKED,3,1606821950370,1606821951763,1393,FRIEND,2.0,UNKNOWN,1,False,1.0,,,,,,,,,,,,,,,,,,,,,,,,,,,,,,,,
3,complete_category_learning_trial,8.0,1,1422,CLICKED,3,1606821953770,1606821955067,1297,UNKNOWN,1.0,UNKNOWN,1,True,1.0,,,,,,,,,,,,,,,,,,,,,,,,,,,,,,,,
3,complete_category_learning_trial,9.0,1,1575,CLICKED,3,1606821957071,1606821958123,1052,UNKNOWN,1.0,UNKNOWN,1,True,1.0,,,,,,,,,,,,,,,,,,,,,,,,,,,,,,,,
3,complete_category_learning_trial,10.0,1,1722,CLICKED,3,1606821960130,1606821961067,937,HOSTILE,4.0,HOSTILE,4,True,1.0,,,,,,,,,,,,,,,,,,,,,,,,,,,,,,,,
3,complete_category_learning_trial,11.0,1,1875,CLICKED,3,1606821963070,1606821964115,1045,FRIEND,2.0,FRIEND,2,True,1.0,,,,,,,,,,,,,,,,,,,,,,,,,,,,,,,,
4,complete_category_learning_trial,1.0,2,267,CLICKED,4,1606827073984,1606827080515,1531,ASSUMED_HOSTILE,6.0,UNKNOWN,1,False,1.0,,,,,,,,,,,,,,,,,,,,,,,,,,,,,,,,
4,complete_category_learning_trial,2.0,2,600,TIMEOUT,4,1606827082549,NA,NA,FRIEND,2.0,NA,NA,False,1.0,,,,,,,,,,,,,,,,,,,,,,,,,,,,,,,,
4,complete_category_learning_trial,3.0,2,701,CLICKED,4,1606827090561,1606827093507,2946,ASSUMED_FRIEND,5.0,ASSUMED_FRIEND,5,True,1.0,,,,,,,,,,,,,,,,,,,,,,,,,,,,,,,,
4,complete_category_learning_trial,4.0,2,836,CLICKED,4,1606827095532,1606827097492,1960,HOSTILE,4.0,FRIEND,2,False,1.0,,,,,,,,,,,,,,,,,,,,,,,,,,,,,,,,
4,complete_category_learning_trial,5.0,2,974,CLICKED,4,1606827099519,1606827101461,1942,NEUTRAL,3.0,NEUTRAL,3,True,1.0,,,,,,,,,,,,,,,,,,,,,,,,,,,,,,,,
4,complete_category_learning_trial,6.0,2,1105,CLICKED,4,1606827103519,1606827105329,1810,UNKNOWN,1.0,UNKNOWN,1,True,1.0,,,,,,,,,,,,,,,,,,,,,,,,,,,,,,,,
4,complete_category_learning_trial,7.0,2,1237,CLICKED,4,1606827107369,1606827109265,1896,FRIEND,2.0,HOSTILE,4,False,1.0,,,,,,,,,,,,,,,,,,,,,,,,,,,,,,,,
4,complete_category_learning_trial,8.0,2,1362,CLICKED,4,1606827111290,1606827112976,1686,UNKNOWN,1.0,NEUTRAL,3,False,1.0,,,,,,,,,,,,,,,,,,,,,,,,,,,,,,,,
4,complete_category_learning_trial,9.0,2,1506,CLICKED,4,1606827115017,1606827117265,2248,ASSUMED_HOSTILE,6.0,ASSUMED_FRIEND,5,False,1.0,,,,,,,,,,,,,,,,,,,,,,,,,,,,,,,,
4,complete_category_learning_trial,10.0,2,1649,CLICKED,4,1606827119307,1606827121453,2146,NEUTRAL,3.0,NEUTRAL,3,True,1.0,,,,,,,,,,,,,,,,,,,,,,,,,,,,,,,,
4,complete_category_learning_trial,11.0,2,1832,CLICKED,4,1606827123499,1606827126804,3305,ASSUMED_FRIEND,5.0,FRIEND,2,False,1.0,,,,,,,,,,,,,,,,,,,,,,,,,,,,,,,,
4,complete_category_learning_trial,12.0,2,2001,CLICKED,4,1606827128832,1606827131876,3044,HOSTILE,4.0,ASSUMED_FRIEND,5,False,1.0,,,,,,,,,,,,,,,,,,,,,,,,,,,,,,,,
4,complete_category_learning_trial,13.0,2,2130,CLICKED,4,1606827133919,1606827135570,1651,NEUTRAL,3.0,NEUTRAL,3,True,1.0,,,,,,,,,,,,,,,,,,,,,,,,,,,,,,,,
4,complete_category_learning_trial,14.0,2,2258,CLICKED,4,1606827137590,1606827139429,1839,UNKNOWN,1.0,UNKNOWN,1,True,1.0,,,,,,,,,,,,,,,,,,,,,,,,,,,,,,,,
4,complete_category_learning_trial,15.0,2,2496,CLICKED,4,1606827141457,1606827146445,4988,ASSUMED_FRIEND,5.0,ASSUMED_FRIEND,5,True,1.0,,,,,,,,,,,,,,,,,,,,,,,,,,,,,,,,
4,complete_category_learning_trial,16.0,2,2633,CLICKED,4,1606827148494,1606827150492,1998,HOSTILE,4.0,HOSTILE,4,True,1.0,,,,,,,,,,,,,,,,,,,,,,,,,,,,,,,,
4,complete_category_learning_trial,17.0,2,2783,CLICKED,4,1606827152512,1606827154913,2401,FRIEND,2.0,FRIEND,2,True,1.0,,,,,,,,,,,,,,,,,,,,,,,,,,,,,,,,
4,complete_category_learning_trial,18.0,2,2910,CLICKED,4,1606827156954,1606827158741,1787,ASSUMED_HOSTILE,6.0,ASSUMED_HOSTILE,6,True,1.0,,,,,,,,,,,,,,,,,,,,,,,,,,,,,,,,
4,complete_category_learning_trial,19.0,2,3245,TIMEOUT,4,1606827160780,NA,NA,ASSUMED_HOSTILE,6.0,NA,NA,False,1.0,,,,,,,,,,,,,,,,,,,,,,,,,,,,,,,,
4,complete_category_learning_trial,20.0,2,3311,CLICKED,4,1606827168990,1606827170946,1956,FRIEND,2.0,FRIEND,2,True,1.0,,,,,,,,,,,,,,,,,,,,,,,,,,,,,,,,
4,complete_category_learning_trial,21.0,2,3447,CLICKED,4,1606827172974,1606827175054,2080,NEUTRAL,3.0,NEUTRAL,3,True,1.0,,,,,,,,,,,,,,,,,,,,,,,,,,,,,,,,
5,complete_category_learning_trial,1.0,2,325,TIMEOUT,5,1606827241590,NA,NA,ASSUMED_HOSTILE,6.0,NA,NA,False,1.0,,,,,,,,,,,,,,,,,,,,,,,,,,,,,,,,
5,complete_category_learning_trial,2.0,2,549,CLICKED,5,1606827247143,1606827251612,4469,HOSTILE,4.0,HOSTILE,4,True,1.0,,,,,,,,,,,,,,,,,,,,,,,,,,,,,,,,
5,complete_category_learning_trial,3.0,2,783,CLICKED,5,1606827253651,1606827256303,2652,ASSUMED_FRIEND,5.0,ASSUMED_HOSTILE,6,False,1.0,,,,,,,,,,,,,,,,,,,,,,,,,,,,,,,,
5,complete_category_learning_trial,4.0,2,1011,CLICKED,5,1606827258324,1606827260851,2527,FRIEND,2.0,FRIEND,2,True,1.0,,,,,,,,,,,,,,,,,,,,,,,,,,,,,,,,
5,complete_category_learning_trial,5.0,2,1209,CLICKED,5,1606827262865,1606827264808,1943,UNKNOWN,1.0,NEUTRAL,3,False,1.0,,,,,,,,,,,,,,,,,,,,,,,,,,,,,,,,
5,complete_category_learning_trial,6.0,2,1428,CLICKED,5,1606827266827,1606827269195,2368,NEUTRAL,3.0,ASSUMED_HOSTILE,6,False,1.0,,,,,,,,,,,,,,,,,,,,,,,,,,,,,,,,
5,complete_category_learning_trial,7.0,2,1660,CLICKED,5,1606827271227,1606827273832,2605,ASSUMED_HOSTILE,6.0,ASSUMED_HOSTILE,6,True,1.0,,,,,,,,,,,,,,,,,,,,,,,,,,,,,,,,
5,complete_category_learning_trial,8.0,2,1845,CLICKED,5,1606827275849,1606827277541,1692,HOSTILE,4.0,HOSTILE,4,True,1.0,,,,,,,,,,,,,,,,,,,,,,,,,,,,,,,,
5,complete_category_learning_trial,9.0,2,2137,CLICKED,5,1606827279567,1606827283377,3810,ASSUMED_FRIEND,5.0,ASSUMED_HOSTILE,6,False,1.0,,,,,,,,,,,,,,,,,,,,,,,,,,,,,,,,
5,complete_category_learning_trial,10.0,2,2326,CLICKED,5,1606827285408,1606827287153,1745,UNKNOWN,1.0,NEUTRAL,3,False,1.0,,,,,,,,,,,,,,,,,,,,,,,,,,,,,,,,
5,complete_category_learning_trial,11.0,2,2558,CLICKED,5,1606827289166,1606827291804,2638,NEUTRAL,3.0,FRIEND,2,False,1.0,,,,,,,,,,,,,,,,,,,,,,,,,,,,,,,,
5,complete_category_learning_trial,12.0,2,2807,CLICKED,5,1606827293826,1606827296775,2949,FRIEND,2.0,ASSUMED_FRIEND,5,False,1.0,,,,,,,,,,,,,,,,,,,,,,,,,,,,,,,,
5,complete_category_learning_trial,13.0,2,2979,CLICKED,5,1606827298786,1606827300219,1433,HOSTILE,4.0,HOSTILE,4,True,1.0,,,,,,,,,,,,,,,,,,,,,,,,,,,,,,,,
5,complete_category_learning_trial,14.0,2,3356,TIMEOUT,5,1606827302246,NA,NA,UNKNOWN,1.0,NA,NA,False,1.0,,,,,,,,,,,,,,,,,,,,,,,,,,,,,,,,
5,complete_category_learning_trial,15.0,2,3578,CLICKED,5,1606827307757,1606827312201,4444,NEUTRAL,3.0,ASSUMED_FRIEND,5,False,1.0,,,,,,,,,,,,,,,,,,,,,,,,,,,,,,,,
5,complete_category_learning_trial,16.0,2,3820,CLICKED,5,1606827314227,1606827317042,2815,ASSUMED_HOSTILE,6.0,ASSUMED_FRIEND,5,False,1.0,,,,,,,,,,,,,,,,,,,,,,,,,,,,,,,,
5,complete_category_learning_trial,17.0,2,4160,CLICKED,5,1606827319067,1606827323840,4773,ASSUMED_FRIEND,5.0,FRIEND,2,False,1.0,,,,,,,,,,,,,,,,,,,,,,,,,,,,,,,,
5,complete_category_learning_trial,18.0,2,4511,CLICKED,5,1606827325866,1606827330849,4983,FRIEND,2.0,ASSUMED_FRIEND,5,False,1.0,,,,,,,,,,,,,,,,,,,,,,,,,,,,,,,,
5,complete_category_learning_trial,19.0,2,4766,CLICKED,5,1606827332867,1606827335951,3084,FRIEND,2.0,ASSUMED_FRIEND,5,False,1.0,,,,,,,,,,,,,,,,,,,,,,,,,,,,,,,,
5,complete_category_learning_trial,20.0,2,4999,CLICKED,5,1606827337966,1606827340617,2651,UNKNOWN,1.0,UNKNOWN,1,True,1.0,,,,,,,,,,,,,,,,,,,,,,,,,,,,,,,,
5,complete_category_learning_trial,21.0,2,5281,CLICKED,5,1606827342647,1606827346263,3616,NEUTRAL,3.0,FRIEND,2,False,1.0,,,,,,,,,,,,,,,,,,,,,,,,,,,,,,,,
5,complete_category_learning_trial,22.0,2,5558,CLICKED,5,1606827348287,1606827351802,3515,ASSUMED_HOSTILE,6.0,ASSUMED_FRIEND,5,False,1.0,,,,,,,,,,,,,,,,,,,,,,,,,,,,,,,,
5,complete_category_learning_trial,23.0,2,5726,CLICKED,5,1606827353826,1606827355151,1325,HOSTILE,4.0,HOSTILE,4,True,1.0,,,,,,,,,,,,,,,,,,,,,,,,,,,,,,,,
5,complete_category_learning_trial,24.0,2,5952,CLICKED,5,1606827357167,1606827359670,2503,ASSUMED_FRIEND,5.0,ASSUMED_FRIEND,5,True,1.0,,,,,,,,,,,,,,,,,,,,,,,,,,,,,,,,
5,complete_category_learning_trial,25.0,2,6131,CLICKED,5,1606827361686,1606827363250,1564,UNKNOWN,1.0,UNKNOWN,1,True,1.0,,,,,,,,,,,,,,,,,,,,,,,,,,,,,,,,
5,complete_category_learning_trial,26.0,2,6297,CLICKED,5,1606827365265,1606827366583,1318,HOSTILE,4.0,HOSTILE,4,True,1.0,,,,,,,,,,,,,,,,,,,,,,,,,,,,,,,,
5,complete_category_learning_trial,27.0,2,6554,CLICKED,5,1606827368605,1606827371721,3116,ASSUMED_FRIEND,5.0,ASSUMED_FRIEND,5,True,1.0,,,,,,,,,,,,,,,,,,,,,,,,,,,,,,,,
5,complete_category_learning_trial,28.0,2,6781,CLICKED,5,1606827373746,1606827376250,2504,FRIEND,2.0,NEUTRAL,3,False,1.0,,,,,,,,,,,,,,,,,,,,,,,,,,,,,,,,
5,complete_category_learning_trial,29.0,2,6990,CLICKED,5,1606827378265,1606827380430,2165,NEUTRAL,3.0,ASSUMED_HOSTILE,6,False,1.0,,,,,,,,,,,,,,,,,,,,,,,,,,,,,,,,
5,complete_category_learning_trial,30.0,2,7219,CLICKED,5,1606827382445,1606827385022,2577,ASSUMED_HOSTILE,6.0,ASSUMED_FRIEND,5,False,1.0,,,,,,,,,,,,,,,,,,,,,,,,,,,,,,,,
5,complete_category_learning_trial,31.0,2,7463,CLICKED,5,1606827387045,1606827389888,2843,FRIEND,2.0,FRIEND,2,True,1.0,,,,,,,,,,,,,,,,,,,,,,,,,,,,,,,,
5,complete_category_learning_trial,32.0,2,7697,CLICKED,5,1606827391909,1606827394578,2669,ASSUMED_FRIEND,5.0,ASSUMED_FRIEND,5,True,1.0,,,,,,,,,,,,,,,,,,,,,,,,,,,,,,,,
5,complete_category_learning_trial,33.0,2,7928,CLICKED,5,1606827396585,1606827399198,2613,NEUTRAL,3.0,NEUTRAL,3,True,1.0,,,,,,,,,,,,,,,,,,,,,,,,,,,,,,,,
5,complete_category_learning_trial,34.0,2,8085,CLICKED,5,1606827401206,1606827402330,1124,HOSTILE,4.0,HOSTILE,4,True,1.0,,,,,,,,,,,,,,,,,,,,,,,,,,,,,,,,
5,complete_category_learning_trial,35.0,2,8268,CLICKED,5,1606827404345,1606827405992,1647,ASSUMED_HOSTILE,6.0,ASSUMED_HOSTILE,6,True,1.0,,,,,,,,,,,,,,,,,,,,,,,,,,,,,,,,
5,complete_category_learning_trial,36.0,2,8466,CLICKED,5,1606827408006,1606827409948,1942,UNKNOWN,1.0,UNKNOWN,1,True,1.0,,,,,,,,,,,,,,,,,,,,,,,,,,,,,,,,
5,complete_category_learning_trial,37.0,2,8765,CLICKED,5,1606827411966,1606827415943,3977,NEUTRAL,3.0,FRIEND,2,False,1.0,,,,,,,,,,,,,,,,,,,,,,,,,,,,,,,,
5,complete_category_learning_trial,38.0,2,8927,CLICKED,5,1606827417965,1606827419171,1206,HOSTILE,4.0,HOSTILE,4,True,1.0,,,,,,,,,,,,,,,,,,,,,,,,,,,,,,,,
5,complete_category_learning_trial,39.0,2,9207,CLICKED,5,1606827421187,1606827424771,3584,ASSUMED_FRIEND,5.0,ASSUMED_FRIEND,5,True,1.0,,,,,,,,,,,,,,,,,,,,,,,,,,,,,,,,
6,complete_category_learning_trial,1.0,3,187,CLICKED,6,1606831292872,1606831296257,3385,ASSUMED_HOSTILE,6.0,HOSTILE,4,False,1.0,,,,,,,,,,,,,,,,,,,,,,,,,,,,,,,,
6,complete_category_learning_trial,2.0,3,353,CLICKED,6,1606831298319,1606831300696,2377,ASSUMED_FRIEND,5.0,ASSUMED_FRIEND,5,True,1.0,,,,,,,,,,,,,,,,,,,,,,,,,,,,,,,,
6,complete_category_learning_trial,3.0,3,539,CLICKED,6,1606831302747,1606831305345,2598,UNKNOWN,1.0,UNKNOWN,1,True,1.0,,,,,,,,,,,,,,,,,,,,,,,,,,,,,,,,
6,complete_category_learning_trial,4.0,3,678,CLICKED,6,1606831307374,1606831309449,2075,FRIEND,2.0,FRIEND,2,True,1.0,,,,,,,,,,,,,,,,,,,,,,,,,,,,,,,,
6,complete_category_learning_trial,5.0,3,1016,TIMEOUT,6,1606831311493,NA,NA,NEUTRAL,3.0,NA,NA,False,1.0,,,,,,,,,,,,,,,,,,,,,,,,,,,,,,,,
6,complete_category_learning_trial,6.0,3,1064,CLICKED,6,1606831318393,1606831319681,1288,HOSTILE,4.0,HOSTILE,4,True,1.0,,,,,,,,,,,,,,,,,,,,,,,,,,,,,,,,
6,complete_category_learning_trial,7.0,3,1188,CLICKED,6,1606831321753,1606831322817,1064,UNKNOWN,1.0,UNKNOWN,1,True,1.0,,,,,,,,,,,,,,,,,,,,,,,,,,,,,,,,
6,complete_category_learning_trial,8.0,3,1321,CLICKED,6,1606831324852,1606831326225,1373,FRIEND,2.0,FRIEND,2,True,1.0,,,,,,,,,,,,,,,,,,,,,,,,,,,,,,,,
6,complete_category_learning_trial,9.0,3,1511,CLICKED,6,1606831328283,1606831330986,2703,ASSUMED_HOSTILE,6.0,ASSUMED_HOSTILE,6,True,1.0,,,,,,,,,,,,,,,,,,,,,,,,,,,,,,,,
6,complete_category_learning_trial,10.0,3,1633,CLICKED,6,1606831333022,1606831334081,1059,NEUTRAL,3.0,NEUTRAL,3,True,1.0,,,,,,,,,,,,,,,,,,,,,,,,,,,,,,,,
7,complete_category_learning_trial,1.0,3,213,CLICKED,7,1606831444446,1606831447714,3268,FRIEND,2.0,FRIEND,2,True,1.0,,,,,,,,,,,,,,,,,,,,,,,,,,,,,,,,
7,complete_category_learning_trial,2.0,3,409,CLICKED,7,1606831449725,1606831451638,1913,ASSUMED_FRIEND,5.0,ASSUMED_FRIEND,5,True,1.0,,,,,,,,,,,,,,,,,,,,,,,,,,,,,,,,
7,complete_category_learning_trial,3.0,3,602,CLICKED,7,1606831453646,1606831455504,1858,UNKNOWN,1.0,NEUTRAL,3,False,1.0,,,,,,,,,,,,,,,,,,,,,,,,,,,,,,,,
7,complete_category_learning_trial,4.0,3,785,CLICKED,7,1606831457525,1606831459154,1629,ASSUMED_HOSTILE,6.0,ASSUMED_HOSTILE,6,True,1.0,,,,,,,,,,,,,,,,,,,,,,,,,,,,,,,,
7,complete_category_learning_trial,5.0,3,940,CLICKED,7,1606831461165,1606831462260,1095,HOSTILE,4.0,HOSTILE,4,True,1.0,,,,,,,,,,,,,,,,,,,,,,,,,,,,,,,,
7,complete_category_learning_trial,6.0,3,1152,CLICKED,7,1606831464264,1606831466502,2238,NEUTRAL,3.0,NEUTRAL,3,True,1.0,,,,,,,,,,,,,,,,,,,,,,,,,,,,,,,,
7,complete_category_learning_trial,7.0,3,1301,CLICKED,7,1606831468525,1606831469479,954,NEUTRAL,3.0,NEUTRAL,3,True,1.0,,,,,,,,,,,,,,,,,,,,,,,,,,,,,,,,
7,complete_category_learning_trial,8.0,3,1459,CLICKED,7,1606831471484,1606831472639,1155,ASSUMED_HOSTILE,6.0,ASSUMED_HOSTILE,6,True,1.0,,,,,,,,,,,,,,,,,,,,,,,,,,,,,,,,
7,complete_category_learning_trial,9.0,3,1609,CLICKED,7,1606831474645,1606831475628,983,UNKNOWN,1.0,UNKNOWN,1,True,1.0,,,,,,,,,,,,,,,,,,,,,,,,,,,,,,,,
7,complete_category_learning_trial,10.0,3,1778,CLICKED,7,1606831477644,1606831479021,1377,ASSUMED_FRIEND,5.0,ASSUMED_FRIEND,5,True,1.0,,,,,,,,,,,,,,,,,,,,,,,,,,,,,,,,
8,complete_category_learning_trial,1.0,4,258,CLICKED,8,1606834463490,1606834467828,4338,FRIEND,2.0,NEUTRAL,3,False,1.0,,,,,,,,,,,,,,,,,,,,,,,,,,,,,,,,
8,complete_category_learning_trial,2.0,4,468,CLICKED,8,1606834469838,1606834472245,2407,NEUTRAL,3.0,NEUTRAL,3,True,1.0,,,,,,,,,,,,,,,,,,,,,,,,,,,,,,,,
8,complete_category_learning_trial,3.0,4,683,CLICKED,8,1606834474268,1606834476745,2477,UNKNOWN,1.0,UNKNOWN,1,True,1.0,,,,,,,,,,,,,,,,,,,,,,,,,,,,,,,,
8,complete_category_learning_trial,4.0,4,881,CLICKED,8,1606834478759,1606834480880,2121,HOSTILE,4.0,HOSTILE,4,True,1.0,,,,,,,,,,,,,,,,,,,,,,,,,,,,,,,,
8,complete_category_learning_trial,5.0,4,1086,CLICKED,8,1606834482901,1606834485163,2262,UNKNOWN,1.0,UNKNOWN,1,True,1.0,,,,,,,,,,,,,,,,,,,,,,,,,,,,,,,,
8,complete_category_learning_trial,6.0,4,1267,CLICKED,8,1606834487173,1606834488963,1790,FRIEND,2.0,FRIEND,2,True,1.0,,,,,,,,,,,,,,,,,,,,,,,,,,,,,,,,
8,complete_category_learning_trial,7.0,4,1460,CLICKED,8,1606834490984,1606834493012,2028,HOSTILE,4.0,HOSTILE,4,True,1.0,,,,,,,,,,,,,,,,,,,,,,,,,,,,,,,,
8,complete_category_learning_trial,8.0,4,1643,CLICKED,8,1606834495041,1606834496830,1789,NEUTRAL,3.0,NEUTRAL,3,True,1.0,,,,,,,,,,,,,,,,,,,,,,,,,,,,,,,,
8,complete_category_learning_trial,9.0,4,1808,CLICKED,8,1606834498840,1606834500264,1424,NEUTRAL,3.0,NEUTRAL,3,True,1.0,,,,,,,,,,,,,,,,,,,,,,,,,,,,,,,,
8,complete_category_learning_trial,10.0,4,2000,CLICKED,8,1606834502285,1606834504281,1996,HOSTILE,4.0,HOSTILE,4,True,1.0,,,,,,,,,,,,,,,,,,,,,,,,,,,,,,,,
9,complete_category_learning_trial,1.0,4,324,TIMEOUT,9,1606834702488,NA,NA,FRIEND,2.0,NA,NA,False,1.0,,,,,,,,,,,,,,,,,,,,,,,,,,,,,,,,
9,complete_category_learning_trial,2.0,4,455,CLICKED,9,1606834708622,1606834711432,2810,HOSTILE,4.0,HOSTILE,4,True,1.0,,,,,,,,,,,,,,,,,,,,,,,,,,,,,,,,
9,complete_category_learning_trial,3.0,4,702,CLICKED,9,1606834713476,1606834716462,2986,NEUTRAL,3.0,UNKNOWN,1,False,1.0,,,,,,,,,,,,,,,,,,,,,,,,,,,,,,,,
9,complete_category_learning_trial,4.0,4,920,CLICKED,9,1606834718520,1606834721004,2484,UNKNOWN,1.0,UNKNOWN,1,True,1.0,,,,,,,,,,,,,,,,,,,,,,,,,,,,,,,,
9,complete_category_learning_trial,5.0,4,1068,CLICKED,9,1606834723044,1606834723990,946,UNKNOWN,1.0,UNKNOWN,1,True,1.0,,,,,,,,,,,,,,,,,,,,,,,,,,,,,,,,
9,complete_category_learning_trial,6.0,4,1228,CLICKED,9,1606834726038,1606834727342,1304,HOSTILE,4.0,HOSTILE,4,True,1.0,,,,,,,,,,,,,,,,,,,,,,,,,,,,,,,,
9,complete_category_learning_trial,7.0,4,1395,CLICKED,9,1606834729364,1606834730706,1342,FRIEND,2.0,FRIEND,2,True,1.0,,,,,,,,,,,,,,,,,,,,,,,,,,,,,,,,
9,complete_category_learning_trial,8.0,4,1581,CLICKED,9,1606834732762,1606834734646,1884,NEUTRAL,3.0,NEUTRAL,3,True,1.0,,,,,,,,,,,,,,,,,,,,,,,,,,,,,,,,
9,complete_category_learning_trial,9.0,4,1735,CLICKED,9,1606834736696,1606834737882,1186,UNKNOWN,1.0,UNKNOWN,1,True,1.0,,,,,,,,,,,,,,,,,,,,,,,,,,,,,,,,
9,complete_category_learning_trial,10.0,4,1894,CLICKED,9,1606834739906,1606834741158,1252,FRIEND,2.0,FRIEND,2,True,1.0,,,,,,,,,,,,,,,,,,,,,,,,,,,,,,,,
10,complete_category_learning_trial,1.0,5,325,TIMEOUT,10,1606899955225,NA,NA,ASSUMED_FRIEND,5.0,NA,NA,False,1.0,,,,,,,,,,,,,,,,,,,,,,,,,,,,,,,,
10,complete_category_learning_trial,2.0,5,434,CLICKED,10,1606899960729,1606899962905,2176,HOSTILE,4.0,HOSTILE,4,True,1.0,,,,,,,,,,,,,,,,,,,,,,,,,,,,,,,,
10,complete_category_learning_trial,3.0,5,660,CLICKED,10,1606899964922,1606899967424,2502,FRIEND,2.0,FRIEND,2,True,1.0,,,,,,,,,,,,,,,,,,,,,,,,,,,,,,,,
10,complete_category_learning_trial,4.0,5,849,CLICKED,10,1606899969444,1606899971219,1775,ASSUMED_HOSTILE,6.0,NEUTRAL,3,False,1.0,,,,,,,,,,,,,,,,,,,,,,,,,,,,,,,,
10,complete_category_learning_trial,5.0,5,1044,CLICKED,10,1606899973245,1606899975117,1872,UNKNOWN,1.0,NEUTRAL,3,False,1.0,,,,,,,,,,,,,,,,,,,,,,,,,,,,,,,,
10,complete_category_learning_trial,6.0,5,1282,CLICKED,10,1606899977123,1606899979876,2753,NEUTRAL,3.0,ASSUMED_FRIEND,5,False,1.0,,,,,,,,,,,,,,,,,,,,,,,,,,,,,,,,
10,complete_category_learning_trial,7.0,5,1492,CLICKED,10,1606899981883,1606899984083,2200,ASSUMED_FRIEND,5.0,ASSUMED_HOSTILE,6,False,1.0,,,,,,,,,,,,,,,,,,,,,,,,,,,,,,,,
10,complete_category_learning_trial,8.0,5,1735,CLICKED,10,1606899986104,1606899988928,2824,NEUTRAL,3.0,ASSUMED_FRIEND,5,False,1.0,,,,,,,,,,,,,,,,,,,,,,,,,,,,,,,,
10,complete_category_learning_trial,9.0,5,1969,CLICKED,10,1606899990944,1606899993618,2674,UNKNOWN,1.0,UNKNOWN,1,True,1.0,,,,,,,,,,,,,,,,,,,,,,,,,,,,,,,,
10,complete_category_learning_trial,10.0,5,2132,CLICKED,10,1606899995644,1606899996879,1235,HOSTILE,4.0,HOSTILE,4,True,1.0,,,,,,,,,,,,,,,,,,,,,,,,,,,,,,,,
10,complete_category_learning_trial,11.0,5,2297,CLICKED,10,1606899998885,1606900000173,1288,FRIEND,2.0,FRIEND,2,True,1.0,,,,,,,,,,,,,,,,,,,,,,,,,,,,,,,,
10,complete_category_learning_trial,12.0,5,2574,CLICKED,10,1606900002184,1606900005714,3530,ASSUMED_HOSTILE,6.0,ASSUMED_HOSTILE,6,True,1.0,,,,,,,,,,,,,,,,,,,,,,,,,,,,,,,,
10,complete_category_learning_trial,13.0,5,2742,CLICKED,10,1606900007725,1606900009072,1347,ASSUMED_HOSTILE,6.0,ASSUMED_HOSTILE,6,True,1.0,,,,,,,,,,,,,,,,,,,,,,,,,,,,,,,,
10,complete_category_learning_trial,14.0,5,2964,CLICKED,10,1606900011084,1606900013519,2435,NEUTRAL,3.0,ASSUMED_FRIEND,5,False,1.0,,,,,,,,,,,,,,,,,,,,,,,,,,,,,,,,
10,complete_category_learning_trial,15.0,5,3164,CLICKED,10,1606900015524,1606900017505,1981,UNKNOWN,1.0,UNKNOWN,1,True,1.0,,,,,,,,,,,,,,,,,,,,,,,,,,,,,,,,
10,complete_category_learning_trial,16.0,5,3338,CLICKED,10,1606900019524,1606900020990,1466,HOSTILE,4.0,HOSTILE,4,True,1.0,,,,,,,,,,,,,,,,,,,,,,,,,,,,,,,,
10,complete_category_learning_trial,17.0,5,3499,CLICKED,10,1606900023006,1606900024212,1206,FRIEND,2.0,FRIEND,2,True,1.0,,,,,,,,,,,,,,,,,,,,,,,,,,,,,,,,
11,complete_category_learning_trial,1.0,5,325,TIMEOUT,11,1606899979842,NA,NA,UNKNOWN,1.0,NA,NA,False,1.0,,,,,,,,,,,,,,,,,,,,,,,,,,,,,,,,
11,complete_category_learning_trial,2.0,5,454,CLICKED,11,1606899985346,1606899987934,2588,ASSUMED_HOSTILE,6.0,ASSUMED_HOSTILE,6,True,1.0,,,,,,,,,,,,,,,,,,,,,,,,,,,,,,,,
11,complete_category_learning_trial,3.0,5,673,CLICKED,11,1606899989940,1606899992320,2380,HOSTILE,4.0,HOSTILE,4,True,1.0,,,,,,,,,,,,,,,,,,,,,,,,,,,,,,,,
11,complete_category_learning_trial,4.0,5,957,CLICKED,11,1606899994340,1606899997986,3646,ASSUMED_FRIEND,5.0,UNKNOWN,1,False,1.0,,,,,,,,,,,,,,,,,,,,,,,,,,,,,,,,
11,complete_category_learning_trial,5.0,5,1137,CLICKED,11,1606900000002,1606900001600,1598,NEUTRAL,3.0,NEUTRAL,3,True,1.0,,,,,,,,,,,,,,,,,,,,,,,,,,,,,,,,
11,complete_category_learning_trial,6.0,5,1301,CLICKED,11,1606900003620,1606900004864,1244,FRIEND,2.0,FRIEND,2,True,1.0,,,,,,,,,,,,,,,,,,,,,,,,,,,,,,,,
11,complete_category_learning_trial,7.0,5,1523,CLICKED,11,1606900006881,1606900009310,2429,ASSUMED_HOSTILE,6.0,UNKNOWN,1,False,1.0,,,,,,,,,,,,,,,,,,,,,,,,,,,,,,,,
11,complete_category_learning_trial,8.0,5,1744,CLICKED,11,1606900011321,1606900013726,2405,UNKNOWN,1.0,NEUTRAL,3,False,1.0,,,,,,,,,,,,,,,,,,,,,,,,,,,,,,,,
11,complete_category_learning_trial,9.0,5,1932,CLICKED,11,1606900015743,1606900017490,1747,HOSTILE,4.0,HOSTILE,4,True,1.0,,,,,,,,,,,,,,,,,,,,,,,,,,,,,,,,
11,complete_category_learning_trial,10.0,5,2095,CLICKED,11,1606900019501,1606900020754,1253,FRIEND,2.0,FRIEND,2,True,1.0,,,,,,,,,,,,,,,,,,,,,,,,,,,,,,,,
11,complete_category_learning_trial,11.0,5,2415,CLICKED,11,1606900022760,1606900027142,4382,NEUTRAL,3.0,NEUTRAL,3,True,1.0,,,,,,,,,,,,,,,,,,,,,,,,,,,,,,,,
11,complete_category_learning_trial,12.0,5,2664,CLICKED,11,1606900029161,1606900032138,2977,ASSUMED_FRIEND,5.0,ASSUMED_FRIEND,5,True,1.0,,,,,,,,,,,,,,,,,,,,,,,,,,,,,,,,
11,complete_category_learning_trial,13.0,5,2814,CLICKED,11,1606900034161,1606900035120,959,ASSUMED_FRIEND,5.0,ASSUMED_FRIEND,5,True,1.0,,,,,,,,,,,,,,,,,,,,,,,,,,,,,,,,
11,complete_category_learning_trial,14.0,5,3131,CLICKED,11,1606900037141,1606900041467,4326,NEUTRAL,3.0,NEUTRAL,3,True,1.0,,,,,,,,,,,,,,,,,,,,,,,,,,,,,,,,
12,complete_category_learning_trial,1.0,6,262,CLICKED,12,1606902572812,1606902577053,4241,FRIEND,2.0,FRIEND,2,True,1.0,,,,,,,,,,,,,,,,,,,,,,,,,,,,,,,,
12,complete_category_learning_trial,2.0,6,638,TIMEOUT,12,1606902579070,NA,NA,HOSTILE,4.0,NA,NA,False,1.0,,,,,,,,,,,,,,,,,,,,,,,,,,,,,,,,
12,complete_category_learning_trial,3.0,6,733,CLICKED,12,1606902584578,1606902586475,1897,UNKNOWN,1.0,NEUTRAL,3,False,1.0,,,,,,,,,,,,,,,,,,,,,,,,,,,,,,,,
12,complete_category_learning_trial,4.0,6,962,CLICKED,12,1606902588490,1606902591052,2562,ASSUMED_HOSTILE,6.0,ASSUMED_HOSTILE,6,True,1.0,,,,,,,,,,,,,,,,,,,,,,,,,,,,,,,,
12,complete_category_learning_trial,5.0,6,1197,CLICKED,12,1606902593069,1606902595764,2695,NEUTRAL,3.0,NEUTRAL,3,True,1.0,,,,,,,,,,,,,,,,,,,,,,,,,,,,,,,,
12,complete_category_learning_trial,6.0,6,1399,CLICKED,12,1606902597770,1606902599803,2033,ASSUMED_FRIEND,5.0,ASSUMED_FRIEND,5,True,1.0,,,,,,,,,,,,,,,,,,,,,,,,,,,,,,,,
12,complete_category_learning_trial,7.0,6,1587,CLICKED,12,1606902601810,1606902603555,1745,ASSUMED_HOSTILE,6.0,ASSUMED_HOSTILE,6,True,1.0,,,,,,,,,,,,,,,,,,,,,,,,,,,,,,,,
12,complete_category_learning_trial,8.0,6,1778,CLICKED,12,1606902605570,1606902607387,1817,FRIEND,2.0,FRIEND,2,True,1.0,,,,,,,,,,,,,,,,,,,,,,,,,,,,,,,,
12,complete_category_learning_trial,9.0,6,1972,CLICKED,12,1606902609410,1606902611267,1857,HOSTILE,4.0,HOSTILE,4,True,1.0,,,,,,,,,,,,,,,,,,,,,,,,,,,,,,,,
12,complete_category_learning_trial,10.0,6,2224,CLICKED,12,1606902613289,1606902616292,3003,UNKNOWN,1.0,UNKNOWN,1,True,1.0,,,,,,,,,,,,,,,,,,,,,,,,,,,,,,,,
13,complete_category_learning_trial,1.0,6,325,TIMEOUT,13,1606902727119,NA,NA,FRIEND,2.0,NA,NA,False,1.0,,,,,,,,,,,,,,,,,,,,,,,,,,,,,,,,
13,complete_category_learning_trial,2.0,6,462,CLICKED,13,1606902732621,1606902735368,2747,HOSTILE,4.0,HOSTILE,4,True,1.0,,,,,,,,,,,,,,,,,,,,,,,,,,,,,,,,
13,complete_category_learning_trial,3.0,6,753,CLICKED,13,1606902737398,1606902741188,3790,UNKNOWN,1.0,ASSUMED_FRIEND,5,False,1.0,,,,,,,,,,,,,,,,,,,,,,,,,,,,,,,,
13,complete_category_learning_trial,4.0,6,1078,CLICKED,13,1606902743195,1606902747679,4484,ASSUMED_HOSTILE,6.0,ASSUMED_HOSTILE,6,True,1.0,,,,,,,,,,,,,,,,,,,,,,,,,,,,,,,,
13,complete_category_learning_trial,5.0,6,1362,CLICKED,13,1606902749698,1606902753355,3657,NEUTRAL,3.0,FRIEND,2,False,1.0,,,,,,,,,,,,,,,,,,,,,,,,,,,,,,,,
13,complete_category_learning_trial,6.0,6,1532,CLICKED,13,1606902755376,1606902756761,1385,ASSUMED_FRIEND,5.0,FRIEND,2,False,1.0,,,,,,,,,,,,,,,,,,,,,,,,,,,,,,,,
13,complete_category_learning_trial,7.0,6,1867,CLICKED,13,1606902758776,1606902763223,4447,HOSTILE,4.0,NEUTRAL,3,False,1.0,,,,,,,,,,,,,,,,,,,,,,,,,,,,,,,,
13,complete_category_learning_trial,8.0,6,2069,CLICKED,13,1606902765238,1606902767268,2030,FRIEND,2.0,FRIEND,2,True,1.0,,,,,,,,,,,,,,,,,,,,,,,,,,,,,,,,
13,complete_category_learning_trial,9.0,6,2272,CLICKED,13,1606902769277,1606902771319,2042,NEUTRAL,3.0,NEUTRAL,3,True,1.0,,,,,,,,,,,,,,,,,,,,,,,,,,,,,,,,
13,complete_category_learning_trial,10.0,6,2606,CLICKED,13,1606902773338,1606902778002,4664,ASSUMED_FRIEND,5.0,ASSUMED_HOSTILE,6,False,1.0,,,,,,,,,,,,,,,,,,,,,,,,,,,,,,,,
13,complete_category_learning_trial,11.0,6,2894,CLICKED,13,1606902780017,1606902783771,3754,UNKNOWN,1.0,ASSUMED_HOSTILE,6,False,1.0,,,,,,,,,,,,,,,,,,,,,,,,,,,,,,,,
13,complete_category_learning_trial,12.0,6,3101,CLICKED,13,1606902785777,1606902787905,2128,ASSUMED_HOSTILE,6.0,NEUTRAL,3,False,1.0,,,,,,,,,,,,,,,,,,,,,,,,,,,,,,,,
13,complete_category_learning_trial,13.0,6,3319,CLICKED,13,1606902789918,1606902792273,2355,UNKNOWN,1.0,UNKNOWN,1,True,1.0,,,,,,,,,,,,,,,,,,,,,,,,,,,,,,,,
13,complete_category_learning_trial,14.0,6,3609,CLICKED,13,1606902794299,1606902798060,3761,ASSUMED_HOSTILE,6.0,ASSUMED_FRIEND,5,False,1.0,,,,,,,,,,,,,,,,,,,,,,,,,,,,,,,,
13,complete_category_learning_trial,15.0,6,3985,TIMEOUT,13,1606902800080,NA,NA,NEUTRAL,3.0,NA,NA,False,1.0,,,,,,,,,,,,,,,,,,,,,,,,,,,,,,,,
13,complete_category_learning_trial,16.0,6,4067,CLICKED,13,1606902805584,1606902807224,1640,FRIEND,2.0,FRIEND,2,True,1.0,,,,,,,,,,,,,,,,,,,,,,,,,,,,,,,,
13,complete_category_learning_trial,17.0,6,4305,CLICKED,13,1606902809238,1606902811980,2742,HOSTILE,4.0,HOSTILE,4,True,1.0,,,,,,,,,,,,,,,,,,,,,,,,,,,,,,,,
13,complete_category_learning_trial,18.0,6,4539,CLICKED,13,1606902814001,1606902816675,2674,ASSUMED_FRIEND,5.0,NEUTRAL,3,False,1.0,,,,,,,,,,,,,,,,,,,,,,,,,,,,,,,,
13,complete_category_learning_trial,19.0,6,4700,CLICKED,13,1606902818700,1606902819891,1191,FRIEND,2.0,FRIEND,2,True,1.0,,,,,,,,,,,,,,,,,,,,,,,,,,,,,,,,
13,complete_category_learning_trial,20.0,6,4923,CLICKED,13,1606902821899,1606902824355,2456,ASSUMED_HOSTILE,6.0,ASSUMED_HOSTILE,6,True,1.0,,,,,,,,,,,,,,,,,,,,,,,,,,,,,,,,
13,complete_category_learning_trial,21.0,6,5125,CLICKED,13,1606902826380,1606902828389,2009,ASSUMED_FRIEND,5.0,ASSUMED_FRIEND,5,True,1.0,,,,,,,,,,,,,,,,,,,,,,,,,,,,,,,,
13,complete_category_learning_trial,22.0,6,5367,CLICKED,13,1606902830398,1606902833220,2822,NEUTRAL,3.0,HOSTILE,4,False,1.0,,,,,,,,,,,,,,,,,,,,,,,,,,,,,,,,
13,complete_category_learning_trial,23.0,6,5540,CLICKED,13,1606902835239,1606902836690,1451,UNKNOWN,1.0,UNKNOWN,1,True,1.0,,,,,,,,,,,,,,,,,,,,,,,,,,,,,,,,
13,complete_category_learning_trial,24.0,6,5806,CLICKED,13,1606902838698,1606902842016,3318,HOSTILE,4.0,NEUTRAL,3,False,1.0,,,,,,,,,,,,,,,,,,,,,,,,,,,,,,,,
13,complete_category_learning_trial,25.0,6,6093,CLICKED,13,1606902844039,1606902847744,3705,ASSUMED_HOSTILE,6.0,ASSUMED_HOSTILE,6,True,1.0,,,,,,,,,,,,,,,,,,,,,,,,,,,,,,,,
13,complete_category_learning_trial,26.0,6,6270,CLICKED,13,1606902849758,1606902851295,1537,ASSUMED_FRIEND,5.0,ASSUMED_FRIEND,5,True,1.0,,,,,,,,,,,,,,,,,,,,,,,,,,,,,,,,
13,complete_category_learning_trial,27.0,6,6486,CLICKED,13,1606902853321,1606902855600,2279,NEUTRAL,3.0,NEUTRAL,3,True,1.0,,,,,,,,,,,,,,,,,,,,,,,,,,,,,,,,
13,complete_category_learning_trial,28.0,6,6671,CLICKED,13,1606902857620,1606902859306,1686,UNKNOWN,1.0,UNKNOWN,1,True,1.0,,,,,,,,,,,,,,,,,,,,,,,,,,,,,,,,
2,complete_practice_trial,,1,425,TIMEOUT_practice,2,1606821964509,NA,NA,,,,,False,,0.0,1499.0,4,HOSTILE,NA,NA,NA,NA,NA,0.0,3,NEUTRAL,544.0,560.0,,,,,,,,,,,,,,,,,,
2,complete_practice_trial,,1,730,CLICKED_practice,2,1606821973278,1606821975604,2326,,,,,True,,1.0,1764.0,3,NEUTRAL,1,230,362,1,UNKNOWN,1.0,1,UNKNOWN,230.0,362.0,,,,,,,,,,,,,,,,,,
2,complete_practice_trial,,1,934,CLICKED_practice,2,1606821978195,1606821979690,1495,,,,,True,,2.0,585.0,1,UNKNOWN,2,265,324,2,FRIEND,2.0,2,FRIEND,265.0,324.0,,,,,,,,,,,,,,,,,,
3,complete_practice_trial,,1,240,CLICKED_practice,3,1606822000369,1606822001604,1235,,,,,True,,0.0,1575.0,4,HOSTILE,0,301,242,3,NEUTRAL,0.0,3,NEUTRAL,301.0,242.0,,,,,,,,,,,,,,,,,,
3,complete_practice_trial,,1,663,TIMEOUT_practice,3,1606822005071,NA,NA,,,,,False,,1.0,1464.0,3,NEUTRAL,NA,NA,NA,NA,NA,1.0,1,UNKNOWN,143.0,342.0,,,,,,,,,,,,,,,,,,
3,complete_practice_trial,,1,888,CLICKED_practice,3,1606822013873,1606822014563,690,,,,,True,,2.0,1819.0,1,UNKNOWN,2,383,398,2,FRIEND,2.0,2,FRIEND,383.0,398.0,,,,,,,,,,,,,,,,,,
4,complete_practice_trial,,2,215,CLICKED_practice,4,1606827224830,1606827228328,3498,,,,,False,,0.0,758.0,4,HOSTILE,3,450,175,6,ASSUMED_HOSTILE,0.0,3,NEUTRAL,197.0,400.0,,,,,,,,,,,,,,,,,,
4,complete_practice_trial,,2,349,CLICKED_practice,4,1606827231000,1606827232298,1298,,,,,False,,1.0,647.0,3,NEUTRAL,3,584,169,6,ASSUMED_HOSTILE,1.0,5,ASSUMED_FRIEND,309.0,597.0,,,,,,,,,,,,,,,,,,
4,complete_practice_trial,,2,483,CLICKED_practice,4,1606827235011,1606827236236,1225,,,,,True,,2.0,686.0,5,ASSUMED_FRIEND,2,439,331,6,ASSUMED_HOSTILE,2.0,6,ASSUMED_HOSTILE,439.0,331.0,,,,,,,,,,,,,,,,,,
5,complete_practice_trial,,2,383,TIMEOUT_practice,5,1606827460451,NA,NA,,,,,False,,0.0,733.0,4,HOSTILE,NA,NA,NA,NA,NA,0.0,3,NEUTRAL,671.0,221.0,,,,,,,,,,,,,,,,,,
5,complete_practice_trial,,2,684,CLICKED_practice,5,1606827469262,1606827471466,2204,,,,,True,,1.0,1809.0,3,NEUTRAL,1,549,194,5,ASSUMED_FRIEND,1.0,5,ASSUMED_FRIEND,549.0,194.0,,,,,,,,,,,,,,,,,,
5,complete_practice_trial,,2,954,CLICKED_practice,5,1606827474845,1606827476862,2017,,,,,True,,2.0,1373.0,5,ASSUMED_FRIEND,2,590,528,6,ASSUMED_HOSTILE,2.0,6,ASSUMED_HOSTILE,590.0,528.0,,,,,,,,,,,,,,,,,,
6,complete_practice_trial,,3,142,CLICKED_practice,6,1606831386411,1606831387409,998,,,,,True,,0.0,914.0,4,HOSTILE,0,520,467,3,NEUTRAL,0.0,3,NEUTRAL,520.0,467.0,,,,,,,,,,,,,,,,,,
6,complete_practice_trial,,3,348,CLICKED_practice,6,1606831390811,1606831392544,1733,,,,,True,,1.0,1391.0,3,NEUTRAL,1,281,149,5,ASSUMED_FRIEND,1.0,5,ASSUMED_FRIEND,281.0,149.0,,,,,,,,,,,,,,,,,,
6,complete_practice_trial,,3,554,CLICKED_practice,6,1606831395781,1606831397665,1884,,,,,True,,2.0,1217.0,5,ASSUMED_FRIEND,2,158,608,6,ASSUMED_HOSTILE,2.0,6,ASSUMED_HOSTILE,158.0,608.0,,,,,,,,,,,,,,,,,,
7,complete_practice_trial,,3,199,CLICKED_practice,7,1606831506569,1606831507632,1063,,,,,True,,0.0,931.0,4,HOSTILE,0,439,-5,3,NEUTRAL,0.0,3,NEUTRAL,439.0,-5.0,,,,,,,,,,,,,,,,,,
7,complete_practice_trial,,3,597,TIMEOUT_practice,7,1606831510594,NA,NA,,,,,False,,1.0,958.0,3,NEUTRAL,NA,NA,NA,NA,NA,1.0,5,ASSUMED_FRIEND,574.0,496.0,,,,,,,,,,,,,,,,,,
7,complete_practice_trial,,3,779,CLICKED_practice,7,1606831518564,1606831519221,657,,,,,True,,2.0,982.0,5,ASSUMED_FRIEND,2,456,272,6,ASSUMED_HOSTILE,2.0,6,ASSUMED_HOSTILE,456.0,272.0,,,,,,,,,,,,,,,,,,
8,complete_practice_trial,,4,296,CLICKED_practice,8,1606834523868,1606834527350,3482,,,,,False,,0.0,781.0,4,HOSTILE,3,145,105,2,FRIEND,0.0,3,NEUTRAL,361.0,496.0,,,,,,,,,,,,,,,,,,
8,complete_practice_trial,,4,670,TIMEOUT_practice,8,1606834530164,NA,NA,,,,,False,,1.0,745.0,3,NEUTRAL,NA,NA,NA,NA,NA,1.0,1,UNKNOWN,385.0,526.0,,,,,,,,,,,,,,,,,,
8,complete_practice_trial,,4,991,CLICKED_practice,8,1606834539035,1606834542120,3085,,,,,False,,2.0,1631.0,1,UNKNOWN,3,416,649,2,FRIEND,2.0,2,FRIEND,352.0,40.0,,,,,,,,,,,,,,,,,,
9,complete_practice_trial,,4,325,TIMEOUT_practice,9,1606834780946,NA,NA,,,,,False,,0.0,625.0,4,HOSTILE,NA,NA,NA,NA,NA,0.0,3,NEUTRAL,367.0,340.0,,,,,,,,,,,,,,,,,,
9,complete_practice_trial,,4,705,TIMEOUT_practice,9,1606834788870,NA,NA,,,,,False,,1.0,678.0,3,NEUTRAL,NA,NA,NA,NA,NA,1.0,1,UNKNOWN,122.0,107.0,,,,,,,,,,,,,,,,,,
9,complete_practice_trial,,4,1148,TIMEOUT_practice,9,1606834797958,NA,NA,,,,,False,,2.0,1993.0,1,UNKNOWN,NA,NA,NA,NA,NA,2.0,2,FRIEND,253.0,464.0,,,,,,,,,,,,,,,,,,
10,complete_practice_trial,,5,404,TIMEOUT_practice,10,1606900051620,NA,NA,,,,,False,,0.0,1082.0,4,HOSTILE,NA,NA,NA,NA,NA,0.0,3,NEUTRAL,257.0,211.0,,,,,,,,,,,,,,,,,,
10,complete_practice_trial,,5,675,CLICKED_practice,10,1606900059424,1606900062042,2618,,,,,True,,1.0,804.0,3,NEUTRAL,1,345,425,5,ASSUMED_FRIEND,1.0,5,ASSUMED_FRIEND,345.0,425.0,,,,,,,,,,,,,,,,,,
10,complete_practice_trial,,5,913,CLICKED_practice,10,1606900065907,1606900066811,904,,,,,True,,2.0,1860.0,5,ASSUMED_FRIEND,2,441,645,6,ASSUMED_HOSTILE,2.0,6,ASSUMED_HOSTILE,441.0,645.0,,,,,,,,,,,,,,,,,,
11,complete_practice_trial,,5,224,CLICKED_practice,11,1606900086034,1606900086998,964,,,,,True,,0.0,1524.0,4,HOSTILE,0,260,204,3,NEUTRAL,0.0,3,NEUTRAL,260.0,204.0,,,,,,,,,,,,,,,,,,
11,complete_practice_trial,,5,463,CLICKED_practice,11,1606900090707,1606900091772,1065,,,,,True,,1.0,1707.0,3,NEUTRAL,1,117,116,5,ASSUMED_FRIEND,1.0,5,ASSUMED_FRIEND,117.0,116.0,,,,,,,,,,,,,,,,,,
11,complete_practice_trial,,5,669,CLICKED_practice,11,1606900094624,1606900095905,1281,,,,,True,,2.0,850.0,5,ASSUMED_FRIEND,2,518,402,6,ASSUMED_HOSTILE,2.0,6,ASSUMED_HOSTILE,518.0,402.0,,,,,,,,,,,,,,,,,,
12,complete_practice_trial,,6,293,CLICKED_practice,12,1606902671646,1606902673884,2238,,,,,True,,0.0,1637.0,4,HOSTILE,0,497,184,3,NEUTRAL,0.0,3,NEUTRAL,497.0,184.0,,,,,,,,,,,,,,,,,,
12,complete_practice_trial,,6,510,CLICKED_practice,12,1606902677254,1606902678212,958,,,,,True,,1.0,1365.0,3,NEUTRAL,1,491,356,5,ASSUMED_FRIEND,1.0,5,ASSUMED_FRIEND,491.0,356.0,,,,,,,,,,,,,,,,,,
12,complete_practice_trial,,6,736,CLICKED_practice,12,1606902681668,1606902682748,1080,,,,,True,,2.0,1452.0,5,ASSUMED_FRIEND,2,332,290,6,ASSUMED_HOSTILE,2.0,6,ASSUMED_HOSTILE,332.0,290.0,,,,,,,,,,,,,,,,,,
13,complete_practice_trial,,6,333,CLICKED_practice,13,1606902905096,1606902908416,3320,,,,,False,,0.0,1344.0,4,HOSTILE,3,479,426,6,ASSUMED_HOSTILE,0.0,3,NEUTRAL,344.0,319.0,,,,,,,,,,,,,,,,,,
13,complete_practice_trial,,6,490,CLICKED_practice,13,1606902911034,1606902911567,533,,,,,False,,1.0,612.0,3,NEUTRAL,3,532,541,6,ASSUMED_HOSTILE,1.0,5,ASSUMED_FRIEND,347.0,507.0,,,,,,,,,,,,,,,,,,
13,complete_practice_trial,,6,923,TIMEOUT_practice,13,1606902915229,NA,NA,,,,,False,,2.0,1658.0,5,ASSUMED_FRIEND,NA,NA,NA,NA,NA,2.0,6,ASSUMED_HOSTILE,348.0,17.0,,,,,,,,,,,,,,,,,,
2,complete_monitoring_trial,,1,388,TIMEOUT_monitoring,2,1606821992208,NA,NA,,,,,False,,,825.0,6,ASSUMED_HOSTILE,,NA,NA,NA,NA,18.0,3,NEUTRAL,228.0,280.0,0.0,1.0,0.0,False,6,3,NA,2.0,3.0,0.0,6.0,2.0,6.0,5.0,0.0,0.0,24.0,1.0
2,complete_monitoring_trial,,1,788,TIMEOUT_monitoring,2,1606822000214,NA,NA,,,,,False,,,1001.0,3,NEUTRAL,,NA,NA,NA,NA,8.0,4,HOSTILE,449.0,566.0,0.0,1.0,1.0,False,3,4,NA,3.0,2.0,0.0,6.0,2.0,6.0,5.0,0.0,0.0,24.0,1.0
2,complete_monitoring_trial,,1,1026,CLICKED_monitoring,2,1606822008861,1606822009964,1103,,,,,True,,,1647.0,1,UNKNOWN,,613,295,4,HOSTILE,0.0,4,HOSTILE,613.0,295.0,0.0,1.0,2.0,False,1,4,0,4.0,2.0,0.0,5.0,2.0,6.0,5.0,0.0,0.0,24.0,1.0
2,complete_monitoring_trial,,1,1433,TIMEOUT_monitoring,2,1606822013105,NA,NA,,,,,False,,,1130.0,2,FRIEND,,NA,NA,NA,NA,6.0,3,NEUTRAL,314.0,149.0,0.0,1.0,3.0,False,2,3,NA,4.0,3.0,0.0,5.0,1.0,6.0,5.0,0.0,0.0,24.0,1.0
2,complete_monitoring_trial,,1,1878,TIMEOUT_monitoring,2,1606822022014,NA,NA,,,,,False,,,1887.0,6,ASSUMED_HOSTILE,,NA,NA,NA,NA,19.0,1,UNKNOWN,193.0,237.0,0.0,1.0,4.0,False,6,1,NA,4.0,3.0,0.0,6.0,1.0,6.0,4.0,0.0,0.0,24.0,1.0
2,complete_monitoring_trial,,1,2310,TIMEOUT_monitoring,2,1606822030664,NA,NA,,,,,False,,,1647.0,3,NEUTRAL,,NA,NA,NA,NA,6.0,5,ASSUMED_FRIEND,499.0,239.0,0.0,1.0,5.0,False,3,5,NA,4.0,2.0,0.0,6.0,1.0,7.0,4.0,0.0,0.0,24.0,1.0
2,complete_monitoring_trial,,1,2568,CLICKED_monitoring,2,1606822039098,1606822040810,1712,,,,,True,,,1444.0,1,UNKNOWN,,451,465,6,ASSUMED_HOSTILE,1.0,6,ASSUMED_HOSTILE,451.0,465.0,0.0,1.0,6.0,False,1,6,1,4.0,2.0,0.0,5.0,1.0,7.0,5.0,0.0,0.0,24.0,1.0
2,complete_monitoring_trial,,1,2983,TIMEOUT_monitoring,2,1606822044116,NA,NA,,,,,False,,,1298.0,1,UNKNOWN,,NA,NA,NA,NA,2.0,2,FRIEND,562.0,238.0,0.0,1.0,7.0,False,1,2,NA,4.0,2.0,0.0,4.0,2.0,7.0,5.0,0.0,0.0,24.0,1.0
2,complete_monitoring_trial,,1,3408,TIMEOUT_monitoring,2,1606822052618,NA,NA,,,,,False,,,1498.0,3,NEUTRAL,,NA,NA,NA,NA,9.0,2,FRIEND,519.0,640.0,0.0,1.0,8.0,False,3,2,NA,4.0,1.0,0.0,4.0,3.0,7.0,5.0,0.0,0.0,24.0,1.0
2,complete_monitoring_trial,,1,3844,TIMEOUT_monitoring,2,1606822061338,NA,NA,,,,,False,,,1722.0,5,ASSUMED_FRIEND,,NA,NA,NA,NA,6.0,4,HOSTILE,298.0,276.0,0.0,1.0,9.0,False,5,4,NA,5.0,1.0,0.0,4.0,3.0,6.0,5.0,0.0,0.0,24.0,1.0
2,complete_monitoring_trial,,1,4277,TIMEOUT_monitoring,2,1606822069988,NA,NA,,,,,False,,,1650.0,5,ASSUMED_FRIEND,,NA,NA,NA,NA,12.0,1,UNKNOWN,458.0,590.0,0.0,1.0,10.0,False,5,1,NA,5.0,1.0,0.0,5.0,3.0,5.0,5.0,0.0,0.0,24.0,1.0
2,complete_monitoring_trial,,1,4696,TIMEOUT_monitoring,2,1606822078365,NA,NA,,,,,False,,,1373.0,5,ASSUMED_FRIEND,,NA,NA,NA,NA,13.0,2,FRIEND,167.0,684.0,0.0,1.0,11.0,False,5,2,NA,5.0,1.0,0.0,5.0,4.0,4.0,5.0,0.0,0.0,24.0,1.0
2,complete_monitoring_trial,,1,5091,TIMEOUT_monitoring,2,1606822086276,NA,NA,,,,,False,,,903.0,1,UNKNOWN,,NA,NA,NA,NA,3.0,3,NEUTRAL,255.0,418.0,0.0,1.0,12.0,False,1,3,NA,5.0,2.0,0.0,4.0,4.0,4.0,5.0,0.0,0.0,24.0,1.0
2,complete_monitoring_trial,,1,5479,TIMEOUT_monitoring,2,1606822094047,NA,NA,,,,,False,,,766.0,1,UNKNOWN,,NA,NA,NA,NA,4.0,6,ASSUMED_HOSTILE,160.0,238.0,0.0,1.0,13.0,False,1,6,NA,5.0,2.0,0.0,3.0,4.0,4.0,6.0,0.0,0.0,24.0,1.0
2,complete_monitoring_trial,,1,5869,TIMEOUT_monitoring,2,1606822101849,NA,NA,,,,,False,,,801.0,1,UNKNOWN,,NA,NA,NA,NA,5.0,2,FRIEND,238.0,401.0,0.0,1.0,14.0,False,1,2,NA,5.0,2.0,0.0,2.0,5.0,4.0,6.0,0.0,0.0,24.0,1.0
2,complete_monitoring_trial,,1,6301,TIMEOUT_monitoring,2,1606822110475,NA,NA,,,,,False,,,1639.0,6,ASSUMED_HOSTILE,,NA,NA,NA,NA,1.0,4,HOSTILE,471.0,409.0,0.0,1.0,15.0,False,6,4,NA,6.0,2.0,0.0,2.0,5.0,4.0,5.0,0.0,0.0,24.0,1.0
2,complete_monitoring_trial,,1,6711,TIMEOUT_monitoring,2,1606822118664,NA,NA,,,,,False,,,1193.0,6,ASSUMED_HOSTILE,,NA,NA,NA,NA,4.0,5,ASSUMED_FRIEND,431.0,524.0,0.0,1.0,16.0,False,6,5,NA,6.0,2.0,0.0,2.0,5.0,5.0,4.0,0.0,0.0,24.0,1.0
2,complete_monitoring_trial,,1,7148,TIMEOUT_monitoring,2,1606822127407,NA,NA,,,,,False,,,1734.0,1,UNKNOWN,,NA,NA,NA,NA,12.0,5,ASSUMED_FRIEND,237.0,358.0,0.0,1.0,17.0,False,1,5,NA,6.0,2.0,0.0,1.0,5.0,6.0,4.0,0.0,0.0,24.0,1.0
2,complete_monitoring_trial,,1,7404,CLICKED_monitoring,2,1606822135901,1606822137535,1634,,,,,False,,,1487.0,1,UNKNOWN,,355,441,2,FRIEND,19.0,3,NEUTRAL,313.0,272.0,0.0,1.0,18.0,False,1,3,13,6.0,3.0,0.0,0.0,5.0,6.0,4.0,0.0,0.0,24.0,1.0
2,complete_monitoring_trial,,1,7822,TIMEOUT_monitoring,2,1606822140890,NA,NA,,,,,False,,,1333.0,4,HOSTILE,,NA,NA,NA,NA,0.0,1,UNKNOWN,332.0,209.0,0.0,1.0,19.0,False,4,1,NA,5.0,3.0,0.0,1.0,5.0,6.0,4.0,0.0,0.0,24.0,1.0
2,complete_monitoring_trial,,1,8263,TIMEOUT_monitoring,2,1606822149720,NA,NA,,,,,False,,,1828.0,5,ASSUMED_FRIEND,,NA,NA,NA,NA,4.0,2,FRIEND,298.0,710.0,0.0,1.0,20.0,False,5,2,NA,5.0,3.0,0.0,1.0,6.0,5.0,4.0,0.0,0.0,24.0,1.0
2,complete_monitoring_trial,,1,8702,TIMEOUT_monitoring,2,1606822158484,NA,NA,,,,,False,,,1776.0,5,ASSUMED_FRIEND,,NA,NA,NA,NA,12.0,1,UNKNOWN,118.0,686.0,0.0,1.0,21.0,False,5,1,NA,5.0,3.0,0.0,2.0,6.0,4.0,4.0,0.0,0.0,24.0,1.0
2,complete_monitoring_trial,,1,9144,TIMEOUT_monitoring,2,1606822167326,NA,NA,,,,,False,,,1829.0,5,ASSUMED_FRIEND,,NA,NA,NA,NA,14.0,6,ASSUMED_HOSTILE,287.0,426.0,0.0,1.0,22.0,False,5,6,NA,5.0,3.0,0.0,2.0,6.0,3.0,5.0,0.0,0.0,24.0,1.0
2,complete_monitoring_trial,,1,9579,TIMEOUT_monitoring,2,1606822176025,NA,NA,,,,,False,,,1692.0,5,ASSUMED_FRIEND,,NA,NA,NA,NA,15.0,3,NEUTRAL,662.0,646.0,0.0,1.0,23.0,False,5,3,NA,5.0,4.0,0.0,2.0,6.0,2.0,5.0,0.0,0.0,24.0,1.0
2,complete_monitoring_trial,,1,10015,TIMEOUT_monitoring,2,1606822184759,NA,NA,,,,,False,,,1732.0,4,HOSTILE,,NA,NA,NA,NA,1.0,5,ASSUMED_FRIEND,101.0,686.0,0.0,1.0,24.0,False,4,5,NA,4.0,4.0,0.0,2.0,6.0,3.0,5.0,0.0,0.0,24.0,1.0
2,complete_monitoring_trial,,1,10416,TIMEOUT_monitoring,2,1606822192769,NA,NA,,,,,False,,,1011.0,1,UNKNOWN,,NA,NA,NA,NA,0.0,3,NEUTRAL,380.0,243.0,0.0,1.0,25.0,False,1,3,NA,4.0,5.0,0.0,1.0,6.0,3.0,5.0,0.0,0.0,24.0,1.0
2,complete_monitoring_trial,,1,10827,TIMEOUT_monitoring,2,1606822201001,NA,NA,,,,,False,,,1225.0,5,ASSUMED_FRIEND,,NA,NA,NA,NA,1.0,6,ASSUMED_HOSTILE,196.0,326.0,0.0,1.0,26.0,False,5,6,NA,4.0,5.0,0.0,1.0,6.0,2.0,6.0,0.0,0.0,24.0,1.0
2,complete_monitoring_trial,,1,11229,TIMEOUT_monitoring,2,1606822209026,NA,NA,,,,,False,,,1034.0,5,ASSUMED_FRIEND,,NA,NA,NA,NA,16.0,4,HOSTILE,667.0,275.0,0.0,1.0,27.0,False,5,4,NA,5.0,5.0,0.0,1.0,6.0,1.0,6.0,0.0,0.0,24.0,1.0
2,complete_monitoring_trial,,1,11632,TIMEOUT_monitoring,2,1606822217093,NA,NA,,,,,False,,,1064.0,5,ASSUMED_FRIEND,,NA,NA,NA,NA,17.0,2,FRIEND,509.0,580.0,0.0,1.0,28.0,False,5,2,NA,5.0,5.0,0.0,1.0,7.0,0.0,6.0,0.0,0.0,24.0,1.0
2,complete_monitoring_trial,,1,11920,CLICKED_monitoring,2,1606822224845,1606822227854,3009,,,,,False,,,751.0,6,ASSUMED_HOSTILE,,626,308,3,NEUTRAL,1.0,2,FRIEND,220.0,483.0,0.0,1.0,29.0,False,6,2,15,5.0,5.0,0.0,1.0,8.0,0.0,5.0,0.0,0.0,24.0,1.0
3,complete_monitoring_trial,,1,228,CLICKED_monitoring,3,1606822028352,1606822029115,763,,,,,True,,,1797.0,2,FRIEND,,607,196,6,ASSUMED_HOSTILE,6.0,6,ASSUMED_HOSTILE,607.0,196.0,0.0,1.0,0.0,False,2,6,6,2.0,2.0,0.0,6.0,1.0,6.0,7.0,0.0,0.0,24.0,1.0
3,complete_monitoring_trial,,1,667,TIMEOUT_monitoring,3,1606822032896,NA,NA,,,,,False,,,1777.0,6,ASSUMED_HOSTILE,,NA,NA,NA,NA,6.0,2,FRIEND,584.0,330.0,0.0,1.0,1.0,False,6,2,NA,2.0,2.0,0.0,6.0,2.0,6.0,6.0,0.0,0.0,24.0,1.0
3,complete_monitoring_trial,,1,1116,TIMEOUT_monitoring,3,1606822041892,NA,NA,,,,,False,,,1996.0,6,ASSUMED_HOSTILE,,NA,NA,NA,NA,18.0,4,HOSTILE,424.0,253.0,0.0,1.0,2.0,False,6,4,NA,3.0,2.0,0.0,6.0,2.0,6.0,5.0,0.0,0.0,24.0,1.0
3,complete_monitoring_trial,,1,1338,CLICKED_monitoring,3,1606822050634,1606822051316,682,,,,,True,,,1759.0,6,ASSUMED_HOSTILE,,453,312,2,FRIEND,19.0,2,FRIEND,453.0,312.0,0.0,1.0,3.0,False,6,2,19,3.0,2.0,0.0,6.0,3.0,6.0,4.0,0.0,0.0,24.0,1.0
3,complete_monitoring_trial,,1,1780,TIMEOUT_monitoring,3,1606822055165,NA,NA,,,,,False,,,1848.0,5,ASSUMED_FRIEND,,NA,NA,NA,NA,12.0,1,UNKNOWN,420.0,563.0,0.0,1.0,4.0,False,5,1,NA,3.0,2.0,0.0,7.0,3.0,5.0,4.0,0.0,0.0,24.0,1.0
3,complete_monitoring_trial,,1,2167,TIMEOUT_monitoring,3,1606822062909,NA,NA,,,,,False,,,754.0,6,ASSUMED_HOSTILE,,NA,NA,NA,NA,20.0,1,UNKNOWN,374.0,432.0,0.0,1.0,5.0,False,6,1,NA,3.0,2.0,0.0,8.0,3.0,5.0,3.0,0.0,0.0,24.0,1.0
3,complete_monitoring_trial,,1,2612,TIMEOUT_monitoring,3,1606822071799,NA,NA,,,,,False,,,1903.0,5,ASSUMED_FRIEND,,NA,NA,NA,NA,13.0,2,FRIEND,211.0,179.0,0.0,1.0,6.0,False,5,2,NA,3.0,2.0,0.0,8.0,4.0,4.0,3.0,0.0,0.0,24.0,1.0
3,complete_monitoring_trial,,1,3056,TIMEOUT_monitoring,3,1606822080676,NA,NA,,,,,False,,,1879.0,5,ASSUMED_FRIEND,,NA,NA,NA,NA,14.0,3,NEUTRAL,232.0,553.0,0.0,1.0,7.0,False,5,3,NA,3.0,3.0,0.0,8.0,4.0,3.0,3.0,0.0,0.0,24.0,1.0
3,complete_monitoring_trial,,1,3454,TIMEOUT_monitoring,3,1606822088647,NA,NA,,,,,False,,,971.0,2,FRIEND,,NA,NA,NA,NA,6.0,5,ASSUMED_FRIEND,347.0,462.0,0.0,1.0,8.0,False,2,5,NA,3.0,3.0,0.0,8.0,3.0,4.0,3.0,0.0,0.0,24.0,1.0
3,complete_monitoring_trial,,1,3838,TIMEOUT_monitoring,3,1606822096326,NA,NA,,,,,False,,,691.0,3,NEUTRAL,,NA,NA,NA,NA,8.0,6,ASSUMED_HOSTILE,209.0,181.0,0.0,1.0,9.0,False,3,6,NA,3.0,2.0,0.0,8.0,3.0,4.0,4.0,0.0,0.0,24.0,1.0
3,complete_monitoring_trial,,1,4258,TIMEOUT_monitoring,3,1606822104722,NA,NA,,,,,False,,,1407.0,1,UNKNOWN,,NA,NA,NA,NA,0.0,3,NEUTRAL,96.0,516.0,0.0,1.0,10.0,False,1,3,NA,3.0,3.0,0.0,7.0,3.0,4.0,4.0,0.0,0.0,24.0,1.0
3,complete_monitoring_trial,,1,4686,TIMEOUT_monitoring,3,1606822113283,NA,NA,,,,,False,,,1566.0,1,UNKNOWN,,NA,NA,NA,NA,1.0,4,HOSTILE,545.0,270.0,0.0,1.0,11.0,False,1,4,NA,4.0,3.0,0.0,6.0,3.0,4.0,4.0,0.0,0.0,24.0,1.0
3,complete_monitoring_trial,,1,4834,CLICKED_monitoring,3,1606822121030,1606822121235,205,,,,,False,,,754.0,1,UNKNOWN,,272,620,4,HOSTILE,2.0,6,ASSUMED_HOSTILE,548.0,286.0,0.0,1.0,12.0,False,1,6,10,4.0,3.0,0.0,5.0,3.0,4.0,5.0,0.0,0.0,24.0,1.0
3,complete_monitoring_trial,,1,5060,CLICKED_monitoring,3,1606822124751,1606822125763,1012,,,,,False,,,1514.0,3,NEUTRAL,,631,30,6,ASSUMED_HOSTILE,0.0,5,ASSUMED_FRIEND,282.0,566.0,0.0,1.0,13.0,False,3,5,22,4.0,2.0,0.0,5.0,3.0,5.0,5.0,0.0,0.0,24.0,1.0
3,complete_monitoring_trial,,1,5441,TIMEOUT_monitoring,3,1606822128389,NA,NA,,,,,False,,,624.0,1,UNKNOWN,,NA,NA,NA,NA,3.0,5,ASSUMED_FRIEND,283.0,337.0,0.0,1.0,14.0,False,1,5,NA,4.0,2.0,0.0,4.0,3.0,6.0,5.0,0.0,0.0,24.0,1.0
3,complete_monitoring_trial,,1,5647,CLICKED_monitoring,3,1606822136490,1606822137499,1009,,,,,True,,,1116.0,6,ASSUMED_HOSTILE,,379,323,5,ASSUMED_FRIEND,2.0,5,ASSUMED_FRIEND,379.0,323.0,0.0,1.0,15.0,False,6,5,2,4.0,2.0,0.0,4.0,3.0,7.0,4.0,0.0,0.0,24.0,1.0
3,complete_monitoring_trial,,1,6051,TIMEOUT_monitoring,3,1606822140584,NA,NA,,,,,False,,,1083.0,4,HOSTILE,,NA,NA,NA,NA,1.0,1,UNKNOWN,463.0,644.0,0.0,1.0,16.0,False,4,1,NA,3.0,2.0,0.0,5.0,3.0,7.0,4.0,0.0,0.0,24.0,1.0
3,complete_monitoring_trial,,1,6481,TIMEOUT_monitoring,3,1606822149182,NA,NA,,,,,False,,,1608.0,1,UNKNOWN,,NA,NA,NA,NA,1.0,6,ASSUMED_HOSTILE,533.0,609.0,0.0,1.0,17.0,False,1,6,NA,3.0,2.0,0.0,4.0,3.0,7.0,5.0,0.0,0.0,24.0,1.0
3,complete_monitoring_trial,,1,6871,TIMEOUT_monitoring,3,1606822156979,NA,NA,,,,,False,,,805.0,6,ASSUMED_HOSTILE,,NA,NA,NA,NA,1.0,4,HOSTILE,642.0,672.0,0.0,1.0,18.0,False,6,4,NA,4.0,2.0,0.0,4.0,3.0,7.0,4.0,0.0,0.0,24.0,1.0
3,complete_monitoring_trial,,1,7249,TIMEOUT_monitoring,3,1606822164534,NA,NA,,,,,False,,,559.0,1,UNKNOWN,,NA,NA,NA,NA,4.0,5,ASSUMED_FRIEND,487.0,455.0,0.0,1.0,19.0,False,1,5,NA,4.0,2.0,0.0,3.0,3.0,8.0,4.0,0.0,0.0,24.0,1.0
3,complete_monitoring_trial,,1,7668,TIMEOUT_monitoring,3,1606822172921,NA,NA,,,,,False,,,1384.0,5,ASSUMED_FRIEND,,NA,NA,NA,NA,0.0,3,NEUTRAL,224.0,683.0,0.0,1.0,20.0,False,5,3,NA,4.0,3.0,0.0,3.0,3.0,7.0,4.0,0.0,0.0,24.0,1.0
3,complete_monitoring_trial,,1,8087,CLICKED_monitoring,3,1606822181710,1606822186307,4597,,,,,False,,,1793.0,5,ASSUMED_FRIEND,,-4,543,4,HOSTILE,2.0,2,FRIEND,372.0,257.0,0.0,1.0,21.0,False,5,2,10,4.0,3.0,0.0,3.0,4.0,6.0,4.0,0.0,0.0,24.0,1.0
3,complete_monitoring_trial,,1,8532,TIMEOUT_monitoring,3,1606822190196,NA,NA,,,,,False,,,1886.0,5,ASSUMED_FRIEND,,NA,NA,NA,NA,3.0,3,NEUTRAL,672.0,176.0,0.0,1.0,22.0,False,5,3,NA,4.0,4.0,0.0,3.0,4.0,5.0,4.0,0.0,0.0,24.0,1.0
3,complete_monitoring_trial,,1,8966,TIMEOUT_monitoring,3,1606822198878,NA,NA,,,,,False,,,1684.0,5,ASSUMED_FRIEND,,NA,NA,NA,NA,4.0,4,HOSTILE,564.0,381.0,0.0,1.0,23.0,False,5,4,NA,5.0,4.0,0.0,3.0,4.0,4.0,4.0,0.0,0.0,24.0,1.0
3,complete_monitoring_trial,,1,9414,TIMEOUT_monitoring,3,1606822207842,NA,NA,,,,,False,,,1966.0,1,UNKNOWN,,NA,NA,NA,NA,5.0,3,NEUTRAL,390.0,524.0,0.0,1.0,24.0,False,1,3,NA,5.0,5.0,0.0,2.0,4.0,4.0,4.0,0.0,0.0,24.0,1.0
3,complete_monitoring_trial,,1,9826,TIMEOUT_monitoring,3,1606822216074,NA,NA,,,,,False,,,1239.0,1,UNKNOWN,,NA,NA,NA,NA,12.0,5,ASSUMED_FRIEND,392.0,146.0,0.0,1.0,25.0,False,1,5,NA,5.0,5.0,0.0,1.0,4.0,5.0,4.0,0.0,0.0,24.0,1.0
3,complete_monitoring_trial,,1,10070,CLICKED_monitoring,3,1606822224585,1606822225955,1370,,,,,True,,,1510.0,6,ASSUMED_HOSTILE,,450,213,2,FRIEND,8.0,2,FRIEND,450.0,213.0,0.0,1.0,26.0,False,6,2,8,5.0,5.0,0.0,1.0,5.0,5.0,3.0,0.0,0.0,24.0,1.0
3,complete_monitoring_trial,,1,10346,CLICKED_monitoring,3,1606822229785,1606822231482,1697,,,,,True,,,1828.0,6,ASSUMED_HOSTILE,,514,265,1,UNKNOWN,21.0,1,UNKNOWN,514.0,265.0,0.0,1.0,27.0,False,6,1,21,5.0,5.0,0.0,2.0,5.0,5.0,2.0,0.0,0.0,24.0,1.0
3,complete_monitoring_trial,,1,10616,CLICKED_monitoring,3,1606822235463,1606822236890,1427,,,,,True,,,1978.0,3,NEUTRAL,,281,503,2,FRIEND,0.0,2,FRIEND,281.0,503.0,0.0,1.0,28.0,False,3,2,0,5.0,4.0,0.0,2.0,6.0,5.0,2.0,0.0,0.0,24.0,1.0
3,complete_monitoring_trial,,1,10812,CLICKED_monitoring,3,1606822239876,1606822240810,934,,,,,True,,,984.0,5,ASSUMED_FRIEND,,147,500,1,UNKNOWN,6.0,1,UNKNOWN,147.0,500.0,0.0,1.0,29.0,False,5,1,6,5.0,4.0,0.0,3.0,6.0,4.0,2.0,0.0,0.0,24.0,1.0
4,complete_monitoring_trial,,2,157,CLICKED_monitoring,4,1606827244641,1606827245774,1133,,,,,True,,,1629.0,6,ASSUMED_HOSTILE,,520,637,5,ASSUMED_FRIEND,18.0,5,ASSUMED_FRIEND,520.0,637.0,0.0,1.0,0.0,False,6,5,18,2.0,2.0,0.0,6.0,2.0,7.0,5.0,0.0,0.0,24.0,1.0
4,complete_monitoring_trial,,2,506,TIMEOUT_monitoring,4,1606827248591,NA,NA,,,,,False,,,799.0,5,ASSUMED_FRIEND,,NA,NA,NA,NA,12.0,6,ASSUMED_HOSTILE,470.0,686.0,0.0,1.0,1.0,False,5,6,NA,2.0,2.0,0.0,6.0,2.0,6.0,6.0,0.0,0.0,24.0,1.0
4,complete_monitoring_trial,,2,631,CLICKED_monitoring,4,1606827258726,1606827259836,1110,,,,,True,,,596.0,6,ASSUMED_HOSTILE,,478,646,4,HOSTILE,12.0,4,HOSTILE,478.0,646.0,0.0,1.0,2.0,False,6,4,12,3.0,2.0,0.0,6.0,2.0,6.0,5.0,0.0,0.0,24.0,1.0
4,complete_monitoring_trial,,2,777,CLICKED_monitoring,4,1606827262727,1606827264087,1360,,,,,True,,,873.0,5,ASSUMED_FRIEND,,169,340,4,HOSTILE,13.0,4,HOSTILE,169.0,340.0,0.0,1.0,3.0,False,5,4,13,4.0,2.0,0.0,6.0,2.0,5.0,5.0,0.0,0.0,24.0,1.0
4,complete_monitoring_trial,,2,956,CLICKED_monitoring,4,1606827267407,1606827269180,1773,,,,,True,,,1301.0,6,ASSUMED_HOSTILE,,38,647,2,FRIEND,19.0,2,FRIEND,38.0,647.0,0.0,1.0,4.0,False,6,2,19,4.0,2.0,0.0,6.0,3.0,5.0,4.0,0.0,0.0,24.0,1.0
4,complete_monitoring_trial,,2,1117,CLICKED_monitoring,4,1606827272635,1606827273914,1279,,,,,True,,,1443.0,5,ASSUMED_FRIEND,,204,384,2,FRIEND,14.0,2,FRIEND,204.0,384.0,0.0,1.0,5.0,False,5,2,14,4.0,2.0,0.0,6.0,4.0,4.0,4.0,0.0,0.0,24.0,1.0
4,complete_monitoring_trial,,2,1470,TIMEOUT_monitoring,4,1606827276904,NA,NA,,,,,False,,,963.0,4,HOSTILE,,NA,NA,NA,NA,10.0,1,UNKNOWN,308.0,520.0,0.0,1.0,6.0,False,4,1,NA,3.0,2.0,0.0,7.0,4.0,4.0,4.0,0.0,0.0,24.0,1.0
4,complete_monitoring_trial,,2,1615,CLICKED_monitoring,4,1606827287175,1606827288626,1451,,,,,True,,,861.0,1,UNKNOWN,,185,387,4,HOSTILE,0.0,4,HOSTILE,185.0,387.0,0.0,1.0,7.0,False,1,4,0,4.0,2.0,0.0,6.0,4.0,4.0,4.0,0.0,0.0,24.0,1.0
4,complete_monitoring_trial,,2,1799,CLICKED_monitoring,4,1606827292426,1606827294031,1605,,,,,True,,,1777.0,6,ASSUMED_HOSTILE,,354,446,1,UNKNOWN,20.0,1,UNKNOWN,354.0,446.0,0.0,1.0,8.0,False,6,1,20,4.0,2.0,0.0,7.0,4.0,4.0,3.0,0.0,0.0,24.0,1.0
4,complete_monitoring_trial,,2,1941,CLICKED_monitoring,4,1606827296856,1606827298282,1426,,,,,True,,,792.0,6,ASSUMED_HOSTILE,,260,371,3,NEUTRAL,21.0,3,NEUTRAL,260.0,371.0,0.0,1.0,9.0,False,6,3,21,4.0,3.0,0.0,7.0,4.0,4.0,2.0,0.0,0.0,24.0,1.0
4,complete_monitoring_trial,,2,2100,CLICKED_monitoring,4,1606827301404,1606827302967,1563,,,,,True,,,1094.0,1,UNKNOWN,,391,564,2,FRIEND,1.0,2,FRIEND,391.0,564.0,0.0,1.0,10.0,False,1,2,1,4.0,3.0,0.0,6.0,5.0,4.0,2.0,0.0,0.0,24.0,1.0
4,complete_monitoring_trial,,2,2482,TIMEOUT_monitoring,4,1606827306869,NA,NA,,,,,False,,,1874.0,5,ASSUMED_FRIEND,,NA,NA,NA,NA,15.0,3,NEUTRAL,438.0,560.0,0.0,1.0,11.0,False,5,3,NA,4.0,4.0,0.0,6.0,5.0,3.0,2.0,0.0,0.0,24.0,1.0
4,complete_monitoring_trial,,2,2825,TIMEOUT_monitoring,4,1606827316973,NA,NA,,,,,False,,,828.0,1,UNKNOWN,,NA,NA,NA,NA,2.0,2,FRIEND,535.0,507.0,0.0,1.0,12.0,False,1,2,NA,4.0,4.0,0.0,5.0,6.0,3.0,2.0,0.0,0.0,24.0,1.0
4,complete_monitoring_trial,,2,3167,TIMEOUT_monitoring,4,1606827327096,NA,NA,,,,,False,,,834.0,5,ASSUMED_FRIEND,,NA,NA,NA,NA,16.0,4,HOSTILE,431.0,352.0,0.0,1.0,13.0,False,5,4,NA,5.0,4.0,0.0,5.0,6.0,2.0,2.0,0.0,0.0,24.0,1.0
4,complete_monitoring_trial,,2,3358,CLICKED_monitoring,4,1606827337697,1606827339906,2209,,,,,True,,,1430.0,3,NEUTRAL,,557,660,4,HOSTILE,8.0,4,HOSTILE,557.0,660.0,0.0,1.0,14.0,False,3,4,8,6.0,3.0,0.0,5.0,6.0,2.0,2.0,0.0,0.0,24.0,1.0
4,complete_monitoring_trial,,2,3513,CLICKED_monitoring,4,1606827343048,1606827344421,1373,,,,,True,,,1121.0,1,UNKNOWN,,616,296,4,HOSTILE,3.0,4,HOSTILE,616.0,296.0,0.0,1.0,15.0,False,1,4,3,7.0,3.0,0.0,4.0,6.0,2.0,2.0,0.0,0.0,24.0,1.0
4,complete_monitoring_trial,,2,3657,CLICKED_monitoring,4,1606827347249,1606827348709,1460,,,,,False,,,801.0,5,ASSUMED_FRIEND,,517,209,6,ASSUMED_HOSTILE,17.0,6,ASSUMED_HOSTILE,602.0,182.0,0.0,1.0,16.0,False,5,6,22,7.0,3.0,0.0,4.0,6.0,1.0,3.0,0.0,0.0,24.0,1.0
4,complete_monitoring_trial,,2,3845,CLICKED_monitoring,4,1606827352420,1606827354336,1916,,,,,True,,,1699.0,4,HOSTILE,,387,194,6,ASSUMED_HOSTILE,0.0,6,ASSUMED_HOSTILE,387.0,194.0,0.0,1.0,17.0,False,4,6,0,6.0,3.0,0.0,4.0,6.0,1.0,4.0,0.0,0.0,24.0,1.0
4,complete_monitoring_trial,,2,4186,TIMEOUT_monitoring,4,1606827356982,NA,NA,,,,,False,,,627.0,1,UNKNOWN,,NA,NA,NA,NA,4.0,5,ASSUMED_FRIEND,449.0,355.0,0.0,1.0,18.0,False,1,5,NA,6.0,3.0,0.0,3.0,6.0,2.0,4.0,0.0,0.0,24.0,1.0
4,complete_monitoring_trial,,2,4355,CLICKED_monitoring,4,1606827368389,1606827369499,1110,,,,,True,,,1721.0,6,ASSUMED_HOSTILE,,310,222,4,HOSTILE,0.0,4,HOSTILE,310.0,222.0,0.0,1.0,19.0,False,6,4,0,7.0,3.0,0.0,3.0,6.0,2.0,3.0,0.0,0.0,24.0,1.0
4,complete_monitoring_trial,,2,4530,CLICKED_monitoring,4,1606827373025,1606827374701,1676,,,,,True,,,1494.0,6,ASSUMED_HOSTILE,,585,135,4,HOSTILE,17.0,4,HOSTILE,585.0,135.0,0.0,1.0,20.0,False,6,4,17,8.0,3.0,0.0,3.0,6.0,2.0,2.0,0.0,0.0,24.0,1.0
4,complete_monitoring_trial,,2,4869,TIMEOUT_monitoring,4,1606827377271,NA,NA,,,,,False,,,546.0,3,NEUTRAL,,NA,NA,NA,NA,9.0,2,FRIEND,336.0,340.0,0.0,1.0,21.0,False,3,2,NA,8.0,2.0,0.0,3.0,7.0,2.0,2.0,0.0,0.0,24.0,1.0
4,complete_monitoring_trial,,2,5019,CLICKED_monitoring,4,1606827387432,1606827389172,1740,,,,,True,,,679.0,1,UNKNOWN,,252,475,3,NEUTRAL,5.0,3,NEUTRAL,252.0,475.0,0.0,1.0,22.0,False,1,3,5,8.0,3.0,0.0,2.0,7.0,2.0,2.0,0.0,0.0,24.0,1.0
4,complete_monitoring_trial,,2,5166,CLICKED_monitoring,4,1606827392219,1606827393429,1210,,,,,True,,,1019.0,6,ASSUMED_HOSTILE,,271,315,1,UNKNOWN,22.0,1,UNKNOWN,271.0,315.0,0.0,1.0,23.0,False,6,1,22,8.0,3.0,0.0,3.0,7.0,2.0,1.0,0.0,0.0,24.0,1.0
4,complete_monitoring_trial,,2,5542,TIMEOUT_monitoring,4,1606827397153,NA,NA,,,,,False,,,1706.0,1,UNKNOWN,,NA,NA,NA,NA,10.0,3,NEUTRAL,553.0,383.0,0.0,1.0,24.0,False,1,3,NA,8.0,4.0,0.0,2.0,7.0,2.0,1.0,0.0,0.0,24.0,1.0
4,complete_monitoring_trial,,2,5716,CLICKED_monitoring,4,1606827408293,1606827409623,1330,,,,,True,,,1705.0,6,ASSUMED_HOSTILE,,190,511,1,UNKNOWN,23.0,1,UNKNOWN,190.0,511.0,0.0,1.0,25.0,False,6,1,23,8.0,4.0,0.0,3.0,7.0,2.0,0.0,0.0,0.0,24.0,1.0
4,complete_monitoring_trial,,2,6059,TIMEOUT_monitoring,4,1606827412366,NA,NA,,,,,False,,,731.0,1,UNKNOWN,,NA,NA,NA,NA,20.0,5,ASSUMED_FRIEND,211.0,309.0,0.0,1.0,26.0,False,1,5,NA,8.0,4.0,0.0,2.0,7.0,3.0,0.0,0.0,0.0,24.0,1.0
4,complete_monitoring_trial,,2,6418,TIMEOUT_monitoring,4,1606827422762,NA,NA,,,,,False,,,1155.0,1,UNKNOWN,,NA,NA,NA,NA,22.0,4,HOSTILE,94.0,78.0,0.0,1.0,27.0,False,1,4,NA,9.0,4.0,0.0,1.0,7.0,3.0,0.0,0.0,0.0,24.0,1.0
4,complete_monitoring_trial,,2,6761,TIMEOUT_monitoring,4,1606827432925,NA,NA,,,,,False,,,792.0,1,UNKNOWN,,NA,NA,NA,NA,23.0,3,NEUTRAL,412.0,519.0,0.0,1.0,28.0,False,1,3,NA,9.0,5.0,0.0,0.0,7.0,3.0,0.0,0.0,0.0,24.0,1.0
4,complete_monitoring_trial,,2,6941,CLICKED_monitoring,4,1606827443781,1606827445711,1930,,,,,True,,,1479.0,5,ASSUMED_FRIEND,,597,476,3,NEUTRAL,4.0,3,NEUTRAL,597.0,476.0,0.0,1.0,29.0,False,5,3,4,9.0,6.0,0.0,0.0,7.0,2.0,0.0,0.0,0.0,24.0,1.0
5,complete_monitoring_trial,,2,419,TIMEOUT_monitoring,5,1606827515613,NA,NA,,,,,False,,,1899.0,1,UNKNOWN,,NA,NA,NA,NA,0.0,2,FRIEND,388.0,494.0,0.0,1.0,0.0,False,1,2,NA,2.0,2.0,0.0,5.0,3.0,6.0,6.0,0.0,0.0,24.0,1.0
5,complete_monitoring_trial,,2,829,TIMEOUT_monitoring,5,1606827523862,NA,NA,,,,,False,,,1203.0,6,ASSUMED_HOSTILE,,NA,NA,NA,NA,18.0,2,FRIEND,105.0,367.0,0.0,1.0,1.0,False,6,2,NA,2.0,2.0,0.0,5.0,4.0,6.0,5.0,0.0,0.0,24.0,1.0
5,complete_monitoring_trial,,2,1249,TIMEOUT_monitoring,5,1606827532268,NA,NA,,,,,False,,,1407.0,1,UNKNOWN,,NA,NA,NA,NA,1.0,5,ASSUMED_FRIEND,427.0,262.0,0.0,1.0,2.0,False,1,5,NA,2.0,2.0,0.0,4.0,4.0,7.0,5.0,0.0,0.0,24.0,1.0
5,complete_monitoring_trial,,2,1643,TIMEOUT_monitoring,5,1606827540139,NA,NA,,,,,False,,,879.0,1,UNKNOWN,,NA,NA,NA,NA,2.0,6,ASSUMED_HOSTILE,185.0,432.0,0.0,1.0,3.0,False,1,6,NA,2.0,2.0,0.0,3.0,4.0,7.0,6.0,0.0,0.0,24.0,1.0
5,complete_monitoring_trial,,2,2066,TIMEOUT_monitoring,5,1606827548602,NA,NA,,,,,False,,,1458.0,3,NEUTRAL,,NA,NA,NA,NA,8.0,5,ASSUMED_FRIEND,155.0,146.0,0.0,1.0,4.0,False,3,5,NA,2.0,1.0,0.0,3.0,4.0,8.0,6.0,0.0,0.0,24.0,1.0
5,complete_monitoring_trial,,2,2463,TIMEOUT_monitoring,5,1606827556537,NA,NA,,,,,False,,,936.0,1,UNKNOWN,,NA,NA,NA,NA,3.0,4,HOSTILE,486.0,88.0,0.0,1.0,5.0,False,1,4,NA,3.0,1.0,0.0,2.0,4.0,8.0,6.0,0.0,0.0,24.0,1.0
5,complete_monitoring_trial,,2,2858,TIMEOUT_monitoring,5,1606827564436,NA,NA,,,,,False,,,896.0,1,UNKNOWN,,NA,NA,NA,NA,4.0,6,ASSUMED_HOSTILE,436.0,240.0,0.0,1.0,6.0,False,1,6,NA,3.0,1.0,0.0,1.0,4.0,8.0,7.0,0.0,0.0,24.0,1.0
5,complete_monitoring_trial,,2,3288,CLICKED_monitoring,5,1606827573222,1606827578040,4818,,,,,True,,,1784.0,5,ASSUMED_FRIEND,,534,666,1,UNKNOWN,1.0,1,UNKNOWN,534.0,666.0,0.0,1.0,7.0,False,5,1,1,3.0,1.0,0.0,2.0,4.0,7.0,7.0,0.0,0.0,24.0,1.0
5,complete_monitoring_trial,,2,3738,TIMEOUT_monitoring,5,1606827582047,NA,NA,,,,,False,,,2000.0,6,ASSUMED_HOSTILE,,NA,NA,NA,NA,2.0,1,UNKNOWN,275.0,698.0,0.0,1.0,8.0,False,6,1,NA,3.0,1.0,0.0,3.0,4.0,7.0,6.0,0.0,0.0,24.0,1.0
5,complete_monitoring_trial,,2,4131,TIMEOUT_monitoring,5,1606827589907,NA,NA,,,,,False,,,867.0,1,UNKNOWN,,NA,NA,NA,NA,1.0,2,FRIEND,304.0,484.0,0.0,1.0,9.0,False,1,2,NA,3.0,1.0,0.0,2.0,5.0,7.0,6.0,0.0,0.0,24.0,1.0
5,complete_monitoring_trial,,2,4506,TIMEOUT_monitoring,5,1606827597408,NA,NA,,,,,False,,,504.0,5,ASSUMED_FRIEND,,NA,NA,NA,NA,8.0,4,HOSTILE,533.0,422.0,0.0,1.0,10.0,False,5,4,NA,4.0,1.0,0.0,2.0,5.0,6.0,6.0,0.0,0.0,24.0,1.0
5,complete_monitoring_trial,,2,4891,TIMEOUT_monitoring,5,1606827605104,NA,NA,,,,,False,,,707.0,5,ASSUMED_FRIEND,,NA,NA,NA,NA,12.0,1,UNKNOWN,549.0,207.0,0.0,1.0,11.0,False,5,1,NA,4.0,1.0,0.0,3.0,5.0,5.0,6.0,0.0,0.0,24.0,1.0
5,complete_monitoring_trial,,2,5110,CLICKED_monitoring,5,1606827613421,1606827614478,1057,,,,,True,,,1322.0,5,ASSUMED_FRIEND,,206,206,4,HOSTILE,13.0,4,HOSTILE,206.0,206.0,0.0,1.0,12.0,False,5,4,13,5.0,1.0,0.0,3.0,5.0,4.0,6.0,0.0,0.0,24.0,1.0
5,complete_monitoring_trial,,2,5489,TIMEOUT_monitoring,5,1606827617059,NA,NA,,,,,False,,,575.0,2,FRIEND,,NA,NA,NA,NA,0.0,5,ASSUMED_FRIEND,147.0,287.0,0.0,1.0,13.0,False,2,5,NA,5.0,1.0,0.0,3.0,4.0,5.0,6.0,0.0,0.0,24.0,1.0
5,complete_monitoring_trial,,2,5938,TIMEOUT_monitoring,5,1606827626039,NA,NA,,,,,False,,,1981.0,3,NEUTRAL,,NA,NA,NA,NA,9.0,2,FRIEND,470.0,206.0,0.0,1.0,14.0,False,3,2,NA,5.0,0.0,0.0,3.0,5.0,5.0,6.0,0.0,0.0,24.0,1.0
5,complete_monitoring_trial,,2,6316,TIMEOUT_monitoring,5,1606827633598,NA,NA,,,,,False,,,557.0,6,ASSUMED_HOSTILE,,NA,NA,NA,NA,4.0,1,UNKNOWN,381.0,561.0,0.0,1.0,15.0,False,6,1,NA,5.0,0.0,0.0,4.0,5.0,5.0,5.0,0.0,0.0,24.0,1.0
5,complete_monitoring_trial,,2,6642,CLICKED_monitoring,5,1606827642161,1606827645116,2955,,,,,False,,,1557.0,6,ASSUMED_HOSTILE,,470,240,2,FRIEND,19.0,2,FRIEND,575.0,151.0,0.0,1.0,16.0,False,6,2,9,5.0,0.0,0.0,4.0,6.0,5.0,4.0,0.0,0.0,24.0,1.0
5,complete_monitoring_trial,,2,7021,TIMEOUT_monitoring,5,1606827647696,NA,NA,,,,,False,,,576.0,5,ASSUMED_FRIEND,,NA,NA,NA,NA,0.0,2,FRIEND,187.0,258.0,0.0,1.0,17.0,False,5,2,NA,5.0,0.0,0.0,4.0,7.0,4.0,4.0,0.0,0.0,24.0,1.0
5,complete_monitoring_trial,,2,7246,CLICKED_monitoring,5,1606827655730,1606827657208,1478,,,,,True,,,1032.0,2,FRIEND,,148,419,6,ASSUMED_HOSTILE,0.0,6,ASSUMED_HOSTILE,148.0,419.0,0.0,1.0,18.0,False,2,6,0,5.0,0.0,0.0,4.0,6.0,4.0,5.0,0.0,0.0,24.0,1.0
5,complete_monitoring_trial,,2,7526,CLICKED_monitoring,5,1606827660963,1606827662797,1834,,,,,True,,,1751.0,5,ASSUMED_FRIEND,,459,292,6,ASSUMED_HOSTILE,14.0,6,ASSUMED_HOSTILE,459.0,292.0,0.0,1.0,19.0,False,5,6,14,5.0,0.0,0.0,4.0,6.0,3.0,6.0,0.0,0.0,24.0,1.0
5,complete_monitoring_trial,,2,7726,CLICKED_monitoring,5,1606827665710,1606827666808,1098,,,,,True,,,903.0,1,UNKNOWN,,303,423,4,HOSTILE,2.0,4,HOSTILE,303.0,423.0,0.0,1.0,20.0,False,1,4,2,6.0,0.0,0.0,3.0,6.0,3.0,6.0,0.0,0.0,24.0,1.0
5,complete_monitoring_trial,,2,7932,CLICKED_monitoring,5,1606827669904,1606827670919,1015,,,,,True,,,1090.0,6,ASSUMED_HOSTILE,,139,485,4,HOSTILE,0.0,4,HOSTILE,139.0,485.0,0.0,1.0,21.0,False,6,4,0,7.0,0.0,0.0,3.0,6.0,3.0,5.0,0.0,0.0,24.0,1.0
5,complete_monitoring_trial,,2,8342,CLICKED_monitoring,5,1606827674670,1606827679119,4449,,,,,False,,,1746.0,6,ASSUMED_HOSTILE,,478,140,2,FRIEND,14.0,5,ASSUMED_FRIEND,497.0,282.0,0.0,1.0,22.0,False,6,5,18,7.0,0.0,0.0,3.0,6.0,4.0,4.0,0.0,0.0,24.0,1.0
5,complete_monitoring_trial,,2,8765,TIMEOUT_monitoring,5,1606827682576,NA,NA,,,,,False,,,1449.0,1,UNKNOWN,,NA,NA,NA,NA,4.0,2,FRIEND,295.0,232.0,0.0,1.0,23.0,False,1,2,NA,7.0,0.0,0.0,2.0,7.0,4.0,4.0,0.0,0.0,24.0,1.0
5,complete_monitoring_trial,,2,9188,TIMEOUT_monitoring,5,1606827691056,NA,NA,,,,,False,,,1452.0,5,ASSUMED_FRIEND,,NA,NA,NA,NA,14.0,4,HOSTILE,519.0,181.0,0.0,1.0,24.0,False,5,4,NA,8.0,0.0,0.0,2.0,7.0,3.0,4.0,0.0,0.0,24.0,1.0
5,complete_monitoring_trial,,2,9567,TIMEOUT_monitoring,5,1606827698638,NA,NA,,,,,False,,,581.0,5,ASSUMED_FRIEND,,NA,NA,NA,NA,15.0,4,HOSTILE,148.0,332.0,0.0,1.0,25.0,False,5,4,NA,9.0,0.0,0.0,2.0,7.0,2.0,4.0,0.0,0.0,24.0,1.0
5,complete_monitoring_trial,,2,10003,TIMEOUT_monitoring,5,1606827707362,NA,NA,,,,,False,,,1725.0,1,UNKNOWN,,NA,NA,NA,NA,5.0,5,ASSUMED_FRIEND,70.0,549.0,0.0,1.0,26.0,False,1,5,NA,9.0,0.0,0.0,1.0,7.0,3.0,4.0,0.0,0.0,24.0,1.0
5,complete_monitoring_trial,,2,10247,CLICKED_monitoring,5,1606827715778,1606827717246,1468,,,,,True,,,1415.0,2,FRIEND,,289,365,4,HOSTILE,1.0,4,HOSTILE,289.0,365.0,0.0,1.0,27.0,False,2,4,1,10.0,0.0,0.0,1.0,6.0,3.0,4.0,0.0,0.0,24.0,1.0
5,complete_monitoring_trial,,2,10456,CLICKED_monitoring,5,1606827720398,1606827721418,1020,,,,,True,,,1148.0,6,ASSUMED_HOSTILE,,567,436,4,HOSTILE,20.0,4,HOSTILE,567.0,436.0,0.0,1.0,28.0,False,6,4,20,11.0,0.0,0.0,1.0,6.0,3.0,3.0,0.0,0.0,24.0,1.0
5,complete_monitoring_trial,,2,10851,TIMEOUT_monitoring,5,1606827724330,NA,NA,,,,,False,,,909.0,5,ASSUMED_FRIEND,,NA,NA,NA,NA,5.0,3,NEUTRAL,607.0,442.0,0.0,1.0,29.0,False,5,3,NA,11.0,1.0,0.0,1.0,6.0,2.0,3.0,0.0,0.0,24.0,1.0
6,complete_monitoring_trial,,3,135,CLICKED_monitoring,6,1606831413473,1606831414392,919,,,,,True,,,1493.0,4,HOSTILE,,623,145,2,FRIEND,10.0,2,FRIEND,623.0,145.0,0.0,1.0,0.0,False,4,2,10,1.0,2.0,0.0,6.0,3.0,6.0,6.0,0.0,0.0,24.0,1.0
6,complete_monitoring_trial,,3,275,CLICKED_monitoring,6,1606831416921,1606831417953,1032,,,,,True,,,500.0,1,UNKNOWN,,474,230,6,ASSUMED_HOSTILE,0.0,6,ASSUMED_HOSTILE,474.0,230.0,0.0,1.0,1.0,False,1,6,0,1.0,2.0,0.0,5.0,3.0,6.0,7.0,0.0,0.0,24.0,1.0
6,complete_monitoring_trial,,3,443,CLICKED_monitoring,6,1606831421043,1606831422329,1286,,,,,True,,,1071.0,1,UNKNOWN,,306,504,5,ASSUMED_FRIEND,1.0,5,ASSUMED_FRIEND,306.0,504.0,0.0,1.0,2.0,False,1,5,1,1.0,2.0,0.0,4.0,3.0,7.0,7.0,0.0,0.0,24.0,1.0
6,complete_monitoring_trial,,3,628,CLICKED_monitoring,6,1606831426131,1606831427184,1053,,,,,True,,,1767.0,2,FRIEND,,405,176,5,ASSUMED_FRIEND,6.0,5,ASSUMED_FRIEND,405.0,176.0,0.0,1.0,3.0,False,2,5,6,1.0,2.0,0.0,4.0,2.0,8.0,7.0,0.0,0.0,24.0,1.0
6,complete_monitoring_trial,,3,779,CLICKED_monitoring,6,1606831429769,1606831430889,1120,,,,,True,,,572.0,1,UNKNOWN,,742,237,5,ASSUMED_FRIEND,2.0,5,ASSUMED_FRIEND,742.0,237.0,0.0,1.0,4.0,False,1,5,2,1.0,2.0,0.0,3.0,2.0,9.0,7.0,0.0,0.0,24.0,1.0
6,complete_monitoring_trial,,3,960,CLICKED_monitoring,6,1606831434133,1606831435624,1491,,,,,True,,,1229.0,5,ASSUMED_FRIEND,,177,450,6,ASSUMED_HOSTILE,1.0,6,ASSUMED_HOSTILE,177.0,450.0,0.0,1.0,5.0,False,5,6,1,1.0,2.0,0.0,3.0,2.0,8.0,8.0,0.0,0.0,24.0,1.0
6,complete_monitoring_trial,,3,1115,CLICKED_monitoring,6,1606831438630,1606831439673,1043,,,,,True,,,989.0,5,ASSUMED_FRIEND,,645,296,3,NEUTRAL,2.0,3,NEUTRAL,645.0,296.0,0.0,1.0,6.0,False,5,3,2,1.0,3.0,0.0,3.0,2.0,7.0,8.0,0.0,0.0,24.0,1.0
6,complete_monitoring_trial,,3,1274,CLICKED_monitoring,6,1606831442608,1606831443681,1073,,,,,True,,,927.0,6,ASSUMED_HOSTILE,,547,183,3,NEUTRAL,0.0,3,NEUTRAL,547.0,183.0,0.0,1.0,7.0,False,6,3,0,1.0,4.0,0.0,3.0,2.0,7.0,7.0,0.0,0.0,24.0,1.0
6,complete_monitoring_trial,,3,1458,CLICKED_monitoring,6,1606831447571,1606831448528,957,,,,,True,,,1864.0,3,NEUTRAL,,547,185,5,ASSUMED_FRIEND,0.0,5,ASSUMED_FRIEND,547.0,185.0,0.0,1.0,8.0,False,3,5,0,1.0,3.0,0.0,3.0,2.0,8.0,7.0,0.0,0.0,24.0,1.0
6,complete_monitoring_trial,,3,1609,CLICKED_monitoring,6,1606831451291,1606831452328,1037,,,,,True,,,741.0,1,UNKNOWN,,303,370,2,FRIEND,3.0,2,FRIEND,303.0,370.0,0.0,1.0,9.0,False,1,2,3,1.0,3.0,0.0,2.0,3.0,8.0,7.0,0.0,0.0,24.0,1.0
6,complete_monitoring_trial,,3,1805,CLICKED_monitoring,6,1606831456331,1606831457369,1038,,,,,True,,,1999.0,5,ASSUMED_FRIEND,,660,19,2,FRIEND,0.0,2,FRIEND,660.0,19.0,0.0,1.0,10.0,False,5,2,0,1.0,3.0,0.0,2.0,4.0,7.0,7.0,0.0,0.0,24.0,1.0
6,complete_monitoring_trial,,3,1955,CLICKED_monitoring,6,1606831459939,1606831461200,1261,,,,,True,,,557.0,5,ASSUMED_FRIEND,,64,332,2,FRIEND,6.0,2,FRIEND,64.0,332.0,0.0,1.0,11.0,False,5,2,6,1.0,3.0,0.0,2.0,5.0,6.0,7.0,0.0,0.0,24.0,1.0
6,complete_monitoring_trial,,3,2169,CLICKED_monitoring,6,1606831464201,1606831466570,2369,,,,,True,,,991.0,6,ASSUMED_HOSTILE,,201,563,5,ASSUMED_FRIEND,1.0,5,ASSUMED_FRIEND,201.0,563.0,0.0,1.0,12.0,False,6,5,1,1.0,3.0,0.0,2.0,5.0,7.0,6.0,0.0,0.0,24.0,1.0
6,complete_monitoring_trial,,3,2312,CLICKED_monitoring,6,1606831469104,1606831470281,1177,,,,,True,,,508.0,5,ASSUMED_FRIEND,,166,470,2,FRIEND,1.0,2,FRIEND,166.0,470.0,0.0,1.0,13.0,False,5,2,1,1.0,3.0,0.0,2.0,6.0,6.0,6.0,0.0,0.0,24.0,1.0
6,complete_monitoring_trial,,3,2474,CLICKED_monitoring,6,1606831473341,1606831474417,1076,,,,,True,,,1036.0,1,UNKNOWN,,518,256,2,FRIEND,4.0,2,FRIEND,518.0,256.0,0.0,1.0,14.0,False,1,2,4,1.0,3.0,0.0,1.0,7.0,6.0,6.0,0.0,0.0,24.0,1.0
6,complete_monitoring_trial,,3,2660,CLICKED_monitoring,6,1606831477525,1606831479272,1747,,,,,True,,,1101.0,4,HOSTILE,,442,518,5,ASSUMED_FRIEND,11.0,5,ASSUMED_FRIEND,442.0,518.0,0.0,1.0,15.0,False,4,5,11,0.0,3.0,0.0,1.0,7.0,7.0,6.0,0.0,0.0,24.0,1.0
6,complete_monitoring_trial,,3,2854,CLICKED_monitoring,6,1606831483121,1606831484256,1135,,,,,True,,,1836.0,1,UNKNOWN,,455,377,2,FRIEND,5.0,2,FRIEND,455.0,377.0,0.0,1.0,16.0,False,1,2,5,0.0,3.0,0.0,0.0,8.0,7.0,6.0,0.0,0.0,24.0,1.0
6,complete_monitoring_trial,,3,3002,CLICKED_monitoring,6,1606831487203,1606831488065,862,,,,,True,,,932.0,6,ASSUMED_HOSTILE,,263,239,4,HOSTILE,18.0,4,HOSTILE,263.0,239.0,0.0,1.0,17.0,False,6,4,18,1.0,3.0,0.0,0.0,8.0,7.0,5.0,0.0,0.0,24.0,1.0
6,complete_monitoring_trial,,3,3147,CLICKED_monitoring,6,1606831490794,1606831491769,975,,,,,True,,,719.0,6,ASSUMED_HOSTILE,,125,295,5,ASSUMED_FRIEND,19.0,5,ASSUMED_FRIEND,125.0,295.0,0.0,1.0,18.0,False,6,5,19,1.0,3.0,0.0,0.0,8.0,8.0,4.0,0.0,0.0,24.0,1.0
6,complete_monitoring_trial,,3,3315,CLICKED_monitoring,6,1606831495071,1606831496017,946,,,,,True,,,1295.0,5,ASSUMED_FRIEND,,376,501,6,ASSUMED_HOSTILE,11.0,6,ASSUMED_HOSTILE,376.0,501.0,0.0,1.0,19.0,False,5,6,11,1.0,3.0,0.0,0.0,8.0,7.0,5.0,0.0,0.0,24.0,1.0
6,complete_monitoring_trial,,3,3476,CLICKED_monitoring,6,1606831499531,1606831500241,710,,,,,True,,,1497.0,5,ASSUMED_FRIEND,,373,626,1,UNKNOWN,12.0,1,UNKNOWN,373.0,626.0,0.0,1.0,20.0,False,5,1,12,1.0,3.0,0.0,1.0,8.0,6.0,5.0,0.0,0.0,24.0,1.0
6,complete_monitoring_trial,,3,3664,CLICKED_monitoring,6,1606831504186,1606831505320,1134,,,,,True,,,1925.0,5,ASSUMED_FRIEND,,424,387,2,FRIEND,13.0,2,FRIEND,424.0,387.0,0.0,1.0,21.0,False,5,2,13,1.0,3.0,0.0,1.0,9.0,5.0,5.0,0.0,0.0,24.0,1.0
6,complete_monitoring_trial,,3,3835,CLICKED_monitoring,6,1606831508863,1606831509984,1121,,,,,True,,,1514.0,6,ASSUMED_HOSTILE,,378,550,2,FRIEND,11.0,2,FRIEND,378.0,550.0,0.0,1.0,22.0,False,6,2,11,1.0,3.0,0.0,1.0,10.0,5.0,4.0,0.0,0.0,24.0,1.0
6,complete_monitoring_trial,,3,4141,CLICKED_monitoring,6,1606831513902,1606831517994,4092,,,,,False,,,1890.0,1,UNKNOWN,,264,126,6,ASSUMED_HOSTILE,12.0,3,NEUTRAL,403.0,591.0,0.0,1.0,23.0,False,1,3,20,1.0,4.0,0.0,0.0,10.0,5.0,4.0,0.0,0.0,24.0,1.0
6,complete_monitoring_trial,,3,4337,CLICKED_monitoring,6,1606831521631,1606831522825,1194,,,,,True,,,1633.0,2,FRIEND,,772,166,1,UNKNOWN,0.0,1,UNKNOWN,772.0,166.0,0.0,1.0,24.0,False,2,1,0,1.0,4.0,0.0,1.0,9.0,5.0,4.0,0.0,0.0,24.0,1.0
6,complete_monitoring_trial,,3,4513,CLICKED_monitoring,6,1606831526193,1606831527216,1023,,,,,True,,,1340.0,5,ASSUMED_FRIEND,,254,372,4,HOSTILE,14.0,4,HOSTILE,254.0,372.0,0.0,1.0,25.0,False,5,4,14,2.0,4.0,0.0,1.0,9.0,4.0,4.0,0.0,0.0,24.0,1.0
6,complete_monitoring_trial,,3,4704,CLICKED_monitoring,6,1606831531021,1606831532120,1099,,,,,True,,,1782.0,1,UNKNOWN,,15,476,6,ASSUMED_HOSTILE,0.0,6,ASSUMED_HOSTILE,15.0,476.0,0.0,1.0,26.0,False,1,6,0,2.0,4.0,0.0,0.0,9.0,4.0,5.0,0.0,0.0,24.0,1.0
6,complete_monitoring_trial,,3,5086,TIMEOUT_monitoring,6,1606831535591,NA,NA,,,,,False,,,1446.0,6,ASSUMED_HOSTILE,,NA,NA,NA,NA,0.0,4,HOSTILE,223.0,526.0,0.0,1.0,27.0,False,6,4,NA,3.0,4.0,0.0,0.0,9.0,4.0,4.0,0.0,0.0,24.0,1.0
6,complete_monitoring_trial,,3,5283,CLICKED_monitoring,6,1606831546151,1606831547064,913,,,,,True,,,1988.0,3,NEUTRAL,,443,593,1,UNKNOWN,2.0,1,UNKNOWN,443.0,593.0,0.0,1.0,28.0,False,3,1,2,3.0,3.0,0.0,1.0,9.0,4.0,4.0,0.0,0.0,24.0,1.0
6,complete_monitoring_trial,,3,5472,CLICKED_monitoring,6,1606831550966,1606831551834,868,,,,,True,,,1885.0,1,UNKNOWN,,395,612,5,ASSUMED_FRIEND,2.0,5,ASSUMED_FRIEND,395.0,612.0,0.0,1.0,29.0,False,1,5,2,3.0,3.0,0.0,0.0,9.0,5.0,4.0,0.0,0.0,24.0,1.0
7,complete_monitoring_trial,,3,394,TIMEOUT_monitoring,7,1606831530661,NA,NA,,,,,False,,,881.0,1,UNKNOWN,,NA,NA,NA,NA,0.0,4,HOSTILE,167.0,625.0,0.0,1.0,0.0,False,1,4,NA,3.0,2.0,0.0,5.0,2.0,6.0,6.0,0.0,0.0,24.0,1.0
7,complete_monitoring_trial,,3,623,CLICKED_monitoring,7,1606831539280,1606831540240,960,,,,,True,,,1613.0,1,UNKNOWN,,95,377,4,HOSTILE,1.0,4,HOSTILE,95.0,377.0,0.0,1.0,1.0,False,1,4,1,4.0,2.0,0.0,4.0,2.0,6.0,6.0,0.0,0.0,24.0,1.0
7,complete_monitoring_trial,,3,864,CLICKED_monitoring,7,1606831543992,1606831545067,1075,,,,,True,,,1737.0,1,UNKNOWN,,255,516,5,ASSUMED_FRIEND,2.0,5,ASSUMED_FRIEND,255.0,516.0,0.0,1.0,2.0,False,1,5,2,4.0,2.0,0.0,3.0,2.0,7.0,6.0,0.0,0.0,24.0,1.0
7,complete_monitoring_trial,,3,1053,CLICKED_monitoring,7,1606831547890,1606831548841,951,,,,,True,,,819.0,3,NEUTRAL,,399,690,4,HOSTILE,8.0,4,HOSTILE,399.0,690.0,0.0,1.0,3.0,False,3,4,8,5.0,1.0,0.0,3.0,2.0,7.0,6.0,0.0,0.0,24.0,1.0
7,complete_monitoring_trial,,3,1235,CLICKED_monitoring,7,1606831551625,1606831552485,860,,,,,True,,,780.0,5,ASSUMED_FRIEND,,256,517,3,NEUTRAL,2.0,3,NEUTRAL,256.0,517.0,0.0,1.0,4.0,False,5,3,2,5.0,2.0,0.0,3.0,2.0,6.0,6.0,0.0,0.0,24.0,1.0
7,complete_monitoring_trial,,3,1485,CLICKED_monitoring,7,1606831556180,1606831557487,1307,,,,,True,,,1693.0,1,UNKNOWN,,197,255,6,ASSUMED_HOSTILE,3.0,6,ASSUMED_HOSTILE,197.0,255.0,0.0,1.0,5.0,False,1,6,3,5.0,2.0,0.0,2.0,2.0,6.0,7.0,0.0,0.0,24.0,1.0
7,complete_monitoring_trial,,3,1883,TIMEOUT_monitoring,7,1606831560455,NA,NA,,,,,False,,,964.0,3,NEUTRAL,,NA,NA,NA,NA,2.0,2,FRIEND,386.0,507.0,0.0,1.0,6.0,False,3,2,NA,5.0,1.0,0.0,2.0,3.0,6.0,7.0,0.0,0.0,24.0,1.0
7,complete_monitoring_trial,,3,2067,CLICKED_monitoring,7,1606831568335,1606831569128,793,,,,,True,,,894.0,6,ASSUMED_HOSTILE,,226,416,1,UNKNOWN,3.0,1,UNKNOWN,226.0,416.0,0.0,1.0,7.0,False,6,1,3,5.0,1.0,0.0,3.0,3.0,6.0,6.0,0.0,0.0,24.0,1.0
7,complete_monitoring_trial,,3,2297,CLICKED_monitoring,7,1606831572818,1606831573729,911,,,,,True,,,1680.0,5,ASSUMED_FRIEND,,537,353,4,HOSTILE,12.0,4,HOSTILE,537.0,353.0,0.0,1.0,8.0,False,5,4,12,6.0,1.0,0.0,3.0,3.0,5.0,6.0,0.0,0.0,24.0,1.0
7,complete_monitoring_trial,,3,2531,CLICKED_monitoring,7,1606831577570,1606831578406,836,,,,,True,,,1838.0,2,FRIEND,,242,484,6,ASSUMED_HOSTILE,2.0,6,ASSUMED_HOSTILE,242.0,484.0,0.0,1.0,9.0,False,2,6,2,6.0,1.0,0.0,3.0,2.0,5.0,7.0,0.0,0.0,24.0,1.0
7,complete_monitoring_trial,,3,2766,CLICKED_monitoring,7,1606831582323,1606831583110,787,,,,,True,,,1914.0,6,ASSUMED_HOSTILE,,137,408,3,NEUTRAL,2.0,3,NEUTRAL,137.0,408.0,0.0,1.0,10.0,False,6,3,2,6.0,2.0,0.0,3.0,2.0,5.0,6.0,0.0,0.0,24.0,1.0
7,complete_monitoring_trial,,3,2975,CLICKED_monitoring,7,1606831586579,1606831587286,707,,,,,True,,,1464.0,6,ASSUMED_HOSTILE,,370,312,3,NEUTRAL,18.0,3,NEUTRAL,370.0,312.0,0.0,1.0,11.0,False,6,3,18,6.0,3.0,0.0,3.0,2.0,5.0,5.0,0.0,0.0,24.0,1.0
7,complete_monitoring_trial,,3,3228,CLICKED_monitoring,7,1606831590822,1606831592348,1526,,,,,True,,,1531.0,1,UNKNOWN,,507,480,4,HOSTILE,3.0,4,HOSTILE,507.0,480.0,0.0,1.0,12.0,False,1,4,3,7.0,3.0,0.0,2.0,2.0,5.0,5.0,0.0,0.0,24.0,1.0
7,complete_monitoring_trial,,3,3397,CLICKED_monitoring,7,1606831594908,1606831595732,824,,,,,True,,,558.0,2,FRIEND,,361,253,4,HOSTILE,6.0,4,HOSTILE,361.0,253.0,0.0,1.0,13.0,False,2,4,6,8.0,3.0,0.0,2.0,1.0,5.0,5.0,0.0,0.0,24.0,1.0
7,complete_monitoring_trial,,3,3648,CLICKED_monitoring,7,1606831599003,1606831600752,1749,,,,,True,,,1269.0,5,ASSUMED_FRIEND,,702,478,4,HOSTILE,13.0,4,HOSTILE,702.0,478.0,0.0,1.0,14.0,False,5,4,13,9.0,3.0,0.0,2.0,1.0,4.0,5.0,0.0,0.0,24.0,1.0
7,complete_monitoring_trial,,3,3893,CLICKED_monitoring,7,1606831604732,1606831605655,923,,,,,True,,,1977.0,6,ASSUMED_HOSTILE,,339,263,2,FRIEND,19.0,2,FRIEND,339.0,263.0,0.0,1.0,15.0,False,6,2,19,9.0,3.0,0.0,2.0,2.0,4.0,4.0,0.0,0.0,24.0,1.0
7,complete_monitoring_trial,,3,4320,TIMEOUT_monitoring,7,1606831609183,NA,NA,,,,,False,,,1524.0,1,UNKNOWN,,NA,NA,NA,NA,4.0,2,FRIEND,528.0,610.0,0.0,1.0,16.0,False,1,2,NA,9.0,3.0,0.0,1.0,3.0,4.0,4.0,0.0,0.0,24.0,1.0
7,complete_monitoring_trial,,3,4535,CLICKED_monitoring,7,1606831617711,1606831618490,779,,,,,True,,,1527.0,5,ASSUMED_FRIEND,,536,296,1,UNKNOWN,14.0,1,UNKNOWN,536.0,296.0,0.0,1.0,17.0,False,5,1,14,9.0,3.0,0.0,2.0,3.0,3.0,4.0,0.0,0.0,24.0,1.0
7,complete_monitoring_trial,,3,4788,CLICKED_monitoring,7,1606831622437,1606831623551,1114,,,,,True,,,1945.0,5,ASSUMED_FRIEND,,238,571,6,ASSUMED_HOSTILE,15.0,6,ASSUMED_HOSTILE,238.0,571.0,0.0,1.0,18.0,False,5,6,15,9.0,3.0,0.0,2.0,3.0,2.0,5.0,0.0,0.0,24.0,1.0
7,complete_monitoring_trial,,3,5070,CLICKED_monitoring,7,1606831627384,1606831629195,1811,,,,,True,,,1827.0,5,ASSUMED_FRIEND,,142,238,1,UNKNOWN,16.0,1,UNKNOWN,142.0,238.0,0.0,1.0,19.0,False,5,1,16,9.0,3.0,0.0,3.0,3.0,1.0,5.0,0.0,0.0,24.0,1.0
7,complete_monitoring_trial,,3,5451,TIMEOUT_monitoring,7,1606831631817,NA,NA,,,,,False,,,615.0,5,ASSUMED_FRIEND,,NA,NA,NA,NA,17.0,4,HOSTILE,195.0,356.0,0.0,1.0,20.0,False,5,4,NA,10.0,3.0,0.0,3.0,3.0,0.0,5.0,0.0,0.0,24.0,1.0
7,complete_monitoring_trial,,3,5614,CLICKED_monitoring,7,1606831639310,1606831640059,749,,,,,True,,,509.0,3,NEUTRAL,,415,317,5,ASSUMED_FRIEND,2.0,5,ASSUMED_FRIEND,415.0,317.0,0.0,1.0,21.0,False,3,5,2,10.0,2.0,0.0,3.0,3.0,1.0,5.0,0.0,0.0,24.0,1.0
7,complete_monitoring_trial,,3,5857,CLICKED_monitoring,7,1606831643980,1606831644935,955,,,,,True,,,1916.0,1,UNKNOWN,,290,160,6,ASSUMED_HOSTILE,5.0,6,ASSUMED_HOSTILE,290.0,160.0,0.0,1.0,22.0,False,1,6,5,10.0,2.0,0.0,2.0,3.0,1.0,6.0,0.0,0.0,24.0,1.0
7,complete_monitoring_trial,,3,6086,CLICKED_monitoring,7,1606831648720,1606831649513,793,,,,,True,,,1780.0,5,ASSUMED_FRIEND,,300,375,6,ASSUMED_HOSTILE,2.0,6,ASSUMED_HOSTILE,300.0,375.0,0.0,1.0,23.0,False,5,6,2,10.0,2.0,0.0,2.0,3.0,0.0,7.0,0.0,0.0,24.0,1.0
7,complete_monitoring_trial,,3,6282,CLICKED_monitoring,7,1606831652344,1606831653427,1083,,,,,True,,,829.0,1,UNKNOWN,,340,118,5,ASSUMED_FRIEND,14.0,5,ASSUMED_FRIEND,340.0,118.0,0.0,1.0,24.0,False,1,5,14,10.0,2.0,0.0,1.0,3.0,1.0,7.0,0.0,0.0,24.0,1.0
7,complete_monitoring_trial,,3,6491,CLICKED_monitoring,7,1606831656924,1606831657614,690,,,,,True,,,1494.0,6,ASSUMED_HOSTILE,,435,368,2,FRIEND,2.0,2,FRIEND,435.0,368.0,0.0,1.0,25.0,False,6,2,2,10.0,2.0,0.0,1.0,4.0,1.0,6.0,0.0,0.0,24.0,1.0
7,complete_monitoring_trial,,3,6736,CLICKED_monitoring,7,1606831661534,1606831662504,970,,,,,True,,,1917.0,6,ASSUMED_HOSTILE,,186,286,5,ASSUMED_FRIEND,5.0,5,ASSUMED_FRIEND,186.0,286.0,0.0,1.0,26.0,False,6,5,5,10.0,2.0,0.0,1.0,4.0,2.0,5.0,0.0,0.0,24.0,1.0
7,complete_monitoring_trial,,3,7121,TIMEOUT_monitoring,7,1606831665199,NA,NA,,,,,False,,,691.0,4,HOSTILE,,NA,NA,NA,NA,0.0,1,UNKNOWN,555.0,481.0,0.0,1.0,27.0,False,4,1,NA,9.0,2.0,0.0,2.0,4.0,2.0,5.0,0.0,0.0,24.0,1.0
7,complete_monitoring_trial,,3,7354,CLICKED_monitoring,7,1606831673976,1606831674877,901,,,,,True,,,1774.0,2,FRIEND,,426,188,3,NEUTRAL,2.0,3,NEUTRAL,426.0,188.0,0.0,1.0,28.0,False,2,3,2,9.0,3.0,0.0,2.0,3.0,2.0,5.0,0.0,0.0,24.0,1.0
7,complete_monitoring_trial,,3,7581,CLICKED_monitoring,7,1606831678604,1606831679408,804,,,,,True,,,1724.0,5,ASSUMED_FRIEND,,91,328,3,NEUTRAL,5.0,3,NEUTRAL,91.0,328.0,0.0,1.0,29.0,False,5,3,5,9.0,4.0,0.0,2.0,3.0,1.0,5.0,0.0,0.0,24.0,1.0
8,complete_monitoring_trial,,4,286,CLICKED_monitoring,8,1606834554324,1606834558835,4511,,,,,False,,,859.0,1,UNKNOWN,,519,503,2,FRIEND,0.0,4,HOSTILE,591.0,388.0,0.0,1.0,0.0,False,1,4,6,3.0,2.0,0.0,5.0,2.0,6.0,6.0,0.0,0.0,24.0,1.0
8,complete_monitoring_trial,,4,476,CLICKED_monitoring,8,1606834562467,1606834562846,379,,,,,False,,,1605.0,6,ASSUMED_HOSTILE,,399,553,5,ASSUMED_FRIEND,18.0,5,ASSUMED_FRIEND,552.0,543.0,0.0,1.0,1.0,False,6,5,13,3.0,2.0,0.0,5.0,2.0,7.0,5.0,0.0,0.0,24.0,1.0
8,complete_monitoring_trial,,4,795,CLICKED_monitoring,8,1606834565585,1606834569568,3983,,,,,False,,,727.0,5,ASSUMED_FRIEND,,610,628,5,ASSUMED_FRIEND,12.0,1,UNKNOWN,208.0,240.0,0.0,1.0,2.0,False,5,1,13,3.0,2.0,0.0,6.0,2.0,6.0,5.0,0.0,0.0,24.0,1.0
8,complete_monitoring_trial,,4,1010,CLICKED_monitoring,8,1606834573422,1606834574536,1114,,,,,False,,,1552.0,1,UNKNOWN,,231,543,5,ASSUMED_FRIEND,1.0,2,FRIEND,258.0,283.0,0.0,1.0,3.0,False,1,2,16,3.0,2.0,0.0,5.0,3.0,6.0,5.0,0.0,0.0,24.0,1.0
8,complete_monitoring_trial,,4,1293,CLICKED_monitoring,8,1606834578337,1606834580505,2168,,,,,False,,,1777.0,6,ASSUMED_HOSTILE,,160,452,2,FRIEND,19.0,2,FRIEND,383.0,525.0,0.0,1.0,4.0,False,6,2,1,3.0,2.0,0.0,5.0,4.0,6.0,4.0,0.0,0.0,24.0,1.0
8,complete_monitoring_trial,,4,1511,CLICKED_monitoring,8,1606834583241,1606834585201,1960,,,,,False,,,651.0,6,ASSUMED_HOSTILE,,516,225,3,NEUTRAL,20.0,1,UNKNOWN,279.0,532.0,0.0,1.0,5.0,False,6,1,9,3.0,2.0,0.0,6.0,4.0,6.0,3.0,0.0,0.0,24.0,1.0
8,complete_monitoring_trial,,4,1710,CLICKED_monitoring,8,1606834587821,1606834589451,1630,,,,,False,,,598.0,1,UNKNOWN,,125,565,2,FRIEND,2.0,5,ASSUMED_FRIEND,489.0,493.0,0.0,1.0,6.0,False,1,5,1,3.0,2.0,0.0,5.0,4.0,7.0,3.0,0.0,0.0,24.0,1.0
8,complete_monitoring_trial,,4,1914,CLICKED_monitoring,8,1606834592572,1606834593803,1231,,,,,False,,,1098.0,1,UNKNOWN,,233,674,5,ASSUMED_FRIEND,3.0,6,ASSUMED_HOSTILE,48.0,416.0,0.0,1.0,7.0,False,1,6,16,3.0,2.0,0.0,4.0,4.0,7.0,4.0,0.0,0.0,24.0,1.0
8,complete_monitoring_trial,,4,2238,CLICKED_monitoring,8,1606834597741,1606834600654,2913,,,,,False,,,1914.0,6,ASSUMED_HOSTILE,,341,259,2,FRIEND,3.0,3,NEUTRAL,120.0,312.0,0.0,1.0,8.0,False,6,3,7,3.0,3.0,0.0,4.0,4.0,7.0,3.0,0.0,0.0,24.0,1.0
8,complete_monitoring_trial,,4,2568,CLICKED_monitoring,8,1606834604472,1606834607804,3332,,,,,False,,,1602.0,5,ASSUMED_FRIEND,,510,478,6,ASSUMED_HOSTILE,2.0,3,NEUTRAL,338.0,642.0,0.0,1.0,9.0,False,5,3,21,3.0,4.0,0.0,4.0,4.0,6.0,3.0,0.0,0.0,24.0,1.0
8,complete_monitoring_trial,,4,2863,CLICKED_monitoring,8,1606834611813,1606834614029,2216,,,,,False,,,1979.0,2,FRIEND,,605,369,5,ASSUMED_FRIEND,1.0,5,ASSUMED_FRIEND,391.0,682.0,0.0,1.0,10.0,False,2,5,13,3.0,4.0,0.0,4.0,3.0,7.0,3.0,0.0,0.0,24.0,1.0
8,complete_monitoring_trial,,4,3111,CLICKED_monitoring,8,1606834617522,1606834619363,1841,,,,,False,,,1454.0,1,UNKNOWN,,283,504,3,NEUTRAL,4.0,3,NEUTRAL,658.0,358.0,0.0,1.0,11.0,False,1,3,2,3.0,5.0,0.0,3.0,3.0,7.0,3.0,0.0,0.0,24.0,1.0
8,complete_monitoring_trial,,4,3435,CLICKED_monitoring,8,1606834622060,1606834626228,4168,,,,,False,,,669.0,3,NEUTRAL,,406,545,5,ASSUMED_FRIEND,2.0,2,FRIEND,82.0,576.0,0.0,1.0,12.0,False,3,2,18,3.0,4.0,0.0,3.0,4.0,7.0,3.0,0.0,0.0,24.0,1.0
8,complete_monitoring_trial,,4,3832,CLICKED_monitoring,8,1606834630190,1606834634601,4411,,,,,False,,,1935.0,1,UNKNOWN,,422,439,5,ASSUMED_FRIEND,5.0,5,ASSUMED_FRIEND,543.0,567.0,0.0,1.0,13.0,False,1,5,13,3.0,4.0,0.0,2.0,4.0,8.0,3.0,0.0,0.0,24.0,1.0
8,complete_monitoring_trial,,4,4112,CLICKED_monitoring,8,1606834638458,1606834640658,2200,,,,,False,,,1830.0,6,ASSUMED_HOSTILE,,490,624,5,ASSUMED_FRIEND,21.0,2,FRIEND,489.0,357.0,0.0,1.0,14.0,False,6,2,5,3.0,4.0,0.0,2.0,5.0,8.0,2.0,0.0,0.0,24.0,1.0
8,complete_monitoring_trial,,4,4322,CLICKED_monitoring,8,1606834644421,1606834645177,756,,,,,False,,,1706.0,4,HOSTILE,,488,276,5,ASSUMED_FRIEND,0.0,3,NEUTRAL,136.0,222.0,0.0,1.0,15.0,False,4,3,17,2.0,5.0,0.0,2.0,5.0,8.0,2.0,0.0,0.0,24.0,1.0
8,complete_monitoring_trial,,4,4597,CLICKED_monitoring,8,1606834649149,1606834650959,1810,,,,,False,,,1952.0,1,UNKNOWN,,507,245,2,FRIEND,12.0,3,NEUTRAL,318.0,380.0,0.0,1.0,16.0,False,1,3,21,2.0,6.0,0.0,1.0,5.0,8.0,2.0,0.0,0.0,24.0,1.0
8,complete_monitoring_trial,,4,4910,CLICKED_monitoring,8,1606834653815,1606834657640,3825,,,,,True,,,784.0,2,FRIEND,,111,642,6,ASSUMED_HOSTILE,2.0,6,ASSUMED_HOSTILE,111.0,642.0,0.0,1.0,17.0,False,2,6,2,2.0,6.0,0.0,1.0,4.0,8.0,3.0,0.0,0.0,24.0,1.0
8,complete_monitoring_trial,,4,5292,TIMEOUT_monitoring,8,1606834661053,NA,NA,,,,,False,,,997.0,6,ASSUMED_HOSTILE,,NA,NA,NA,NA,2.0,2,FRIEND,35.0,551.0,0.0,1.0,18.0,False,6,2,NA,2.0,6.0,0.0,1.0,5.0,8.0,2.0,0.0,0.0,24.0,1.0
8,complete_monitoring_trial,,4,5549,CLICKED_monitoring,8,1606834670018,1606834671637,1619,,,,,False,,,1742.0,6,ASSUMED_HOSTILE,,143,633,2,FRIEND,22.0,4,HOSTILE,229.0,153.0,0.0,1.0,19.0,False,6,4,2,3.0,6.0,0.0,1.0,5.0,8.0,1.0,0.0,0.0,24.0,1.0
8,complete_monitoring_trial,,4,5727,CLICKED_monitoring,8,1606834674312,1606834675574,1262,,,,,True,,,647.0,5,ASSUMED_FRIEND,,306,390,6,ASSUMED_HOSTILE,1.0,6,ASSUMED_HOSTILE,306.0,390.0,0.0,1.0,20.0,False,5,6,1,3.0,6.0,0.0,1.0,5.0,7.0,2.0,0.0,0.0,24.0,1.0
8,complete_monitoring_trial,,4,5935,CLICKED_monitoring,8,1606834678907,1606834680058,1151,,,,,True,,,1303.0,5,ASSUMED_FRIEND,,221,424,6,ASSUMED_HOSTILE,5.0,6,ASSUMED_HOSTILE,221.0,424.0,0.0,1.0,21.0,False,5,6,5,3.0,6.0,0.0,1.0,5.0,6.0,3.0,0.0,0.0,24.0,1.0
8,complete_monitoring_trial,,4,6262,CLICKED_monitoring,8,1606834682709,1606834687056,4347,,,,,False,,,624.0,5,ASSUMED_FRIEND,,315,550,6,ASSUMED_HOSTILE,13.0,2,FRIEND,632.0,33.0,0.0,1.0,22.0,False,5,2,5,3.0,6.0,0.0,1.0,6.0,5.0,3.0,0.0,0.0,24.0,1.0
8,complete_monitoring_trial,,4,6628,CLICKED_monitoring,8,1606834690622,1606834695179,4557,,,,,False,,,1235.0,5,ASSUMED_FRIEND,,463,579,2,FRIEND,14.0,1,UNKNOWN,41.0,479.0,0.0,1.0,23.0,False,5,1,7,3.0,6.0,0.0,2.0,6.0,4.0,3.0,0.0,0.0,24.0,1.0
8,complete_monitoring_trial,,4,6879,CLICKED_monitoring,8,1606834699026,1606834700976,1950,,,,,False,,,1535.0,1,UNKNOWN,,376,547,3,NEUTRAL,14.0,3,NEUTRAL,160.0,699.0,0.0,1.0,24.0,False,1,3,3,3.0,7.0,0.0,1.0,6.0,4.0,3.0,0.0,0.0,24.0,1.0
8,complete_monitoring_trial,,4,7185,CLICKED_monitoring,8,1606834704209,1606834707539,3330,,,,,False,,,1218.0,5,ASSUMED_FRIEND,,494,491,5,ASSUMED_FRIEND,15.0,2,FRIEND,242.0,620.0,0.0,1.0,25.0,False,5,2,16,3.0,7.0,0.0,1.0,7.0,3.0,3.0,0.0,0.0,24.0,1.0
8,complete_monitoring_trial,,4,7455,CLICKED_monitoring,8,1606834710819,1606834713809,2990,,,,,False,,,853.0,6,ASSUMED_HOSTILE,,535,210,2,FRIEND,1.0,2,FRIEND,34.0,536.0,0.0,1.0,26.0,False,6,2,21,3.0,7.0,0.0,1.0,8.0,3.0,2.0,0.0,0.0,24.0,1.0
8,complete_monitoring_trial,,4,7749,CLICKED_monitoring,8,1606834717591,1606834720013,2422,,,,,False,,,1736.0,6,ASSUMED_HOSTILE,,487,330,3,NEUTRAL,5.0,1,UNKNOWN,626.0,185.0,0.0,1.0,27.0,False,6,1,3,3.0,7.0,0.0,2.0,8.0,3.0,1.0,0.0,0.0,24.0,1.0
8,complete_monitoring_trial,,4,7982,CLICKED_monitoring,8,1606834723750,1606834725392,1642,,,,,False,,,1404.0,1,UNKNOWN,,52,461,2,FRIEND,5.0,2,FRIEND,603.0,75.0,0.0,1.0,28.0,False,1,2,1,3.0,7.0,0.0,1.0,9.0,3.0,1.0,0.0,0.0,24.0,1.0
8,complete_monitoring_trial,,4,8255,CLICKED_monitoring,8,1606834728156,1606834731232,3076,,,,,False,,,733.0,5,ASSUMED_FRIEND,,515,317,4,HOSTILE,16.0,3,NEUTRAL,598.0,282.0,0.0,1.0,29.0,False,5,3,11,3.0,8.0,0.0,1.0,9.0,2.0,1.0,0.0,0.0,24.0,1.0
9,complete_monitoring_trial,,4,286,CLICKED_monitoring,9,1606834816828,1606834822048,220,,,,,False,,,1774.0,1,UNKNOWN,,385,370,3,NEUTRAL,0.0,4,HOSTILE,87.0,710.0,0.0,1.0,0.0,False,1,4,8,3.0,2.0,0.0,5.0,2.0,6.0,6.0,0.0,0.0,24.0,1.0
9,complete_monitoring_trial,,4,668,TIMEOUT_monitoring,9,1606834825204,NA,NA,,,,,False,,,1129.0,1,UNKNOWN,,NA,NA,NA,NA,1.0,4,HOSTILE,645.0,337.0,0.0,1.0,1.0,False,1,4,NA,4.0,2.0,0.0,4.0,2.0,6.0,6.0,0.0,0.0,24.0,1.0
9,complete_monitoring_trial,,4,1037,TIMEOUT_monitoring,9,1606834833698,NA,NA,,,,,False,,,899.0,1,UNKNOWN,,NA,NA,NA,NA,2.0,5,ASSUMED_FRIEND,213.0,375.0,0.0,1.0,2.0,False,1,5,NA,4.0,2.0,0.0,3.0,2.0,7.0,6.0,0.0,0.0,24.0,1.0
9,complete_monitoring_trial,,4,1424,TIMEOUT_monitoring,9,1606834842606,NA,NA,,,,,False,,,1380.0,3,NEUTRAL,,NA,NA,NA,NA,8.0,4,HOSTILE,549.0,421.0,0.0,1.0,3.0,False,3,4,NA,5.0,1.0,0.0,3.0,2.0,7.0,6.0,0.0,0.0,24.0,1.0
9,complete_monitoring_trial,,4,1613,CLICKED_monitoring,9,1606834851804,1606834852962,1158,,,,,True,,,1329.0,5,ASSUMED_FRIEND,,261,489,3,NEUTRAL,2.0,3,NEUTRAL,261.0,489.0,0.0,1.0,4.0,False,5,3,2,5.0,2.0,0.0,3.0,2.0,6.0,6.0,0.0,0.0,24.0,1.0
9,complete_monitoring_trial,,4,2005,TIMEOUT_monitoring,9,1606834856018,NA,NA,,,,,False,,,1006.0,1,UNKNOWN,,NA,NA,NA,NA,3.0,6,ASSUMED_HOSTILE,480.0,304.0,0.0,1.0,5.0,False,1,6,NA,5.0,2.0,0.0,2.0,2.0,6.0,7.0,0.0,0.0,24.0,1.0
9,complete_monitoring_trial,,4,2428,TIMEOUT_monitoring,9,1606834865482,NA,NA,,,,,False,,,1896.0,3,NEUTRAL,,NA,NA,NA,NA,2.0,2,FRIEND,540.0,406.0,0.0,1.0,6.0,False,3,2,NA,5.0,1.0,0.0,2.0,3.0,6.0,7.0,0.0,0.0,24.0,1.0
9,complete_monitoring_trial,,4,2821,TIMEOUT_monitoring,9,1606834874158,NA,NA,,,,,False,,,967.0,6,ASSUMED_HOSTILE,,NA,NA,NA,NA,3.0,1,UNKNOWN,687.0,293.0,0.0,1.0,7.0,False,6,1,NA,5.0,1.0,0.0,3.0,3.0,6.0,6.0,0.0,0.0,24.0,1.0
9,complete_monitoring_trial,,4,3066,CLICKED_monitoring,9,1606834883592,1606834884856,1264,,,,,True,,,1944.0,5,ASSUMED_FRIEND,,88,241,4,HOSTILE,12.0,4,HOSTILE,88.0,241.0,0.0,1.0,8.0,False,5,4,12,6.0,1.0,0.0,3.0,3.0,5.0,6.0,0.0,0.0,24.0,1.0
9,complete_monitoring_trial,,4,3476,TIMEOUT_monitoring,9,1606834888718,NA,NA,,,,,False,,,1821.0,2,FRIEND,,NA,NA,NA,NA,2.0,6,ASSUMED_HOSTILE,217.0,612.0,0.0,1.0,9.0,False,2,6,NA,6.0,1.0,0.0,3.0,2.0,5.0,7.0,0.0,0.0,24.0,1.0
9,complete_monitoring_trial,,4,3847,CLICKED_monitoring,9,1606834897394,1606834902698,304,,,,,False,,,1098.0,6,ASSUMED_HOSTILE,,218,5,4,HOSTILE,2.0,3,NEUTRAL,131.0,650.0,0.0,1.0,10.0,False,6,3,1,6.0,2.0,0.0,3.0,2.0,5.0,6.0,0.0,0.0,24.0,1.0
9,complete_monitoring_trial,,4,4241,TIMEOUT_monitoring,9,1606834906348,NA,NA,,,,,False,,,1626.0,6,ASSUMED_HOSTILE,,NA,NA,NA,NA,18.0,3,NEUTRAL,143.0,396.0,0.0,1.0,11.0,False,6,3,NA,6.0,3.0,0.0,3.0,2.0,5.0,5.0,0.0,0.0,24.0,1.0
9,complete_monitoring_trial,,4,4607,TIMEOUT_monitoring,9,1606834914816,NA,NA,,,,,False,,,685.0,1,UNKNOWN,,NA,NA,NA,NA,3.0,4,HOSTILE,171.0,466.0,0.0,1.0,12.0,False,1,4,NA,7.0,3.0,0.0,2.0,2.0,5.0,5.0,0.0,0.0,24.0,1.0
9,complete_monitoring_trial,,4,4743,CLICKED_monitoring,9,1606834924136,1606834924276,140,,,,,False,,,1368.0,2,FRIEND,,145,75,1,UNKNOWN,6.0,4,HOSTILE,423.0,614.0,0.0,1.0,13.0,False,2,4,5,8.0,3.0,0.0,2.0,1.0,5.0,5.0,0.0,0.0,24.0,1.0
9,complete_monitoring_trial,,4,5141,TIMEOUT_monitoring,9,1606834927722,NA,NA,,,,,False,,,1409.0,5,ASSUMED_FRIEND,,NA,NA,NA,NA,13.0,4,HOSTILE,363.0,335.0,0.0,1.0,14.0,False,5,4,NA,9.0,3.0,0.0,2.0,1.0,4.0,5.0,0.0,0.0,24.0,1.0
9,complete_monitoring_trial,,4,5578,TIMEOUT_monitoring,9,1606834937544,NA,NA,,,,,False,,,1998.0,6,ASSUMED_HOSTILE,,NA,NA,NA,NA,19.0,2,FRIEND,261.0,550.0,0.0,1.0,15.0,False,6,2,NA,9.0,3.0,0.0,2.0,2.0,4.0,4.0,0.0,0.0,24.0,1.0
9,complete_monitoring_trial,,4,5992,TIMEOUT_monitoring,9,1606834947478,NA,NA,,,,,False,,,1947.0,1,UNKNOWN,,NA,NA,NA,NA,4.0,2,FRIEND,460.0,633.0,0.0,1.0,16.0,False,1,2,NA,9.0,3.0,0.0,1.0,3.0,4.0,4.0,0.0,0.0,24.0,1.0
9,complete_monitoring_trial,,4,6377,CLICKED_monitoring,9,1606834956666,1606834962258,592,,,,,True,,,1546.0,5,ASSUMED_FRIEND,,463,69,1,UNKNOWN,14.0,1,UNKNOWN,463.0,69.0,0.0,1.0,17.0,False,5,1,14,9.0,3.0,0.0,2.0,3.0,3.0,4.0,0.0,0.0,24.0,1.0
9,complete_monitoring_trial,,4,6795,TIMEOUT_monitoring,9,1606834966064,NA,NA,,,,,False,,,1774.0,5,ASSUMED_FRIEND,,NA,NA,NA,NA,15.0,6,ASSUMED_HOSTILE,544.0,584.0,0.0,1.0,18.0,False,5,6,NA,9.0,3.0,0.0,2.0,3.0,2.0,5.0,0.0,0.0,24.0,1.0
9,complete_monitoring_trial,,4,7178,TIMEOUT_monitoring,9,1606834974528,NA,NA,,,,,False,,,1086.0,5,ASSUMED_FRIEND,,NA,NA,NA,NA,16.0,1,UNKNOWN,468.0,376.0,0.0,1.0,19.0,False,5,1,NA,9.0,3.0,0.0,3.0,3.0,1.0,5.0,0.0,0.0,24.0,1.0
9,complete_monitoring_trial,,4,7334,CLICKED_monitoring,9,1606834983074,1606834983860,786,,,,,False,,,769.0,5,ASSUMED_FRIEND,,686,655,3,NEUTRAL,17.0,4,HOSTILE,365.0,541.0,0.0,1.0,20.0,False,5,4,18,10.0,3.0,0.0,3.0,3.0,0.0,5.0,0.0,0.0,24.0,1.0
9,complete_monitoring_trial,,4,7705,TIMEOUT_monitoring,9,1606834986502,NA,NA,,,,,False,,,593.0,3,NEUTRAL,,NA,NA,NA,NA,2.0,5,ASSUMED_FRIEND,451.0,445.0,0.0,1.0,21.0,False,3,5,NA,10.0,2.0,0.0,3.0,3.0,1.0,5.0,0.0,0.0,24.0,1.0
9,complete_monitoring_trial,,4,8076,TIMEOUT_monitoring,9,1606834994766,NA,NA,,,,,False,,,884.0,1,UNKNOWN,,NA,NA,NA,NA,5.0,6,ASSUMED_HOSTILE,248.0,277.0,0.0,1.0,22.0,False,1,6,NA,10.0,2.0,0.0,2.0,3.0,1.0,6.0,0.0,0.0,24.0,1.0
9,complete_monitoring_trial,,4,8462,TIMEOUT_monitoring,9,1606835002946,NA,NA,,,,,False,,,978.0,5,ASSUMED_FRIEND,,NA,NA,NA,NA,2.0,6,ASSUMED_HOSTILE,252.0,575.0,0.0,1.0,23.0,False,5,6,NA,10.0,2.0,0.0,2.0,3.0,0.0,7.0,0.0,0.0,24.0,1.0
9,complete_monitoring_trial,,4,8670,CLICKED_monitoring,9,1606835011768,1606835012842,1074,,,,,True,,,1660.0,1,UNKNOWN,,258,599,5,ASSUMED_FRIEND,14.0,5,ASSUMED_FRIEND,258.0,599.0,0.0,1.0,24.0,False,1,5,14,10.0,2.0,0.0,1.0,3.0,1.0,7.0,0.0,0.0,24.0,1.0
9,complete_monitoring_trial,,4,9064,TIMEOUT_monitoring,9,1606835015778,NA,NA,,,,,False,,,907.0,6,ASSUMED_HOSTILE,,NA,NA,NA,NA,2.0,2,FRIEND,161.0,461.0,0.0,1.0,25.0,False,6,2,NA,10.0,2.0,0.0,1.0,4.0,1.0,6.0,0.0,0.0,24.0,1.0
9,complete_monitoring_trial,,4,9378,CLICKED_monitoring,9,1606835024556,1606835027622,3066,,,,,True,,,1448.0,6,ASSUMED_HOSTILE,,743,148,5,ASSUMED_FRIEND,5.0,5,ASSUMED_FRIEND,743.0,148.0,0.0,1.0,26.0,False,6,5,5,10.0,2.0,0.0,1.0,4.0,2.0,5.0,0.0,0.0,24.0,1.0
9,complete_monitoring_trial,,4,9763,TIMEOUT_monitoring,9,1606835030958,NA,NA,,,,,False,,,1290.0,4,HOSTILE,,NA,NA,NA,NA,0.0,1,UNKNOWN,263.0,324.0,0.0,1.0,27.0,False,4,1,NA,9.0,2.0,0.0,2.0,4.0,2.0,5.0,0.0,0.0,24.0,1.0
9,complete_monitoring_trial,,4,10152,TIMEOUT_monitoring,9,1606835039076,NA,NA,,,,,False,,,926.0,2,FRIEND,,NA,NA,NA,NA,2.0,3,NEUTRAL,85.0,318.0,0.0,1.0,28.0,False,2,3,NA,9.0,3.0,0.0,2.0,3.0,2.0,5.0,0.0,0.0,24.0,1.0
9,complete_monitoring_trial,,4,10278,CLICKED_monitoring,9,1606835047596,1606835048228,632,,,,,False,,,1055.0,5,ASSUMED_FRIEND,,427,427,5,ASSUMED_FRIEND,5.0,3,NEUTRAL,594.0,695.0,0.0,1.0,29.0,False,5,3,14,9.0,4.0,0.0,2.0,3.0,1.0,5.0,0.0,0.0,24.0,1.0
10,complete_monitoring_trial,,5,221,CLICKED_monitoring,10,1606900077447,1606900078461,1014,,,,,True,,,1530.0,4,HOSTILE,,193,460,2,FRIEND,10.0,2,FRIEND,193.0,460.0,0.0,1.0,0.0,False,4,2,10,1.0,2.0,0.0,6.0,3.0,6.0,6.0,0.0,0.0,24.0,1.0
10,complete_monitoring_trial,,5,603,TIMEOUT_monitoring,10,1606900081100,NA,NA,,,,,False,,,633.0,1,UNKNOWN,,NA,NA,NA,NA,0.0,6,ASSUMED_HOSTILE,662.0,598.0,0.0,1.0,1.0,False,1,6,NA,1.0,2.0,0.0,5.0,3.0,6.0,7.0,0.0,0.0,24.0,1.0
10,complete_monitoring_trial,,5,1042,TIMEOUT_monitoring,10,1606900089893,NA,NA,,,,,False,,,1794.0,1,UNKNOWN,,NA,NA,NA,NA,1.0,5,ASSUMED_FRIEND,265.0,450.0,0.0,1.0,2.0,False,1,5,NA,1.0,2.0,0.0,4.0,3.0,7.0,7.0,0.0,0.0,24.0,1.0
10,complete_monitoring_trial,,5,1444,TIMEOUT_monitoring,10,1606900097928,NA,NA,,,,,False,,,1046.0,2,FRIEND,,NA,NA,NA,NA,6.0,5,ASSUMED_FRIEND,576.0,736.0,0.0,1.0,3.0,False,2,5,NA,1.0,2.0,0.0,4.0,2.0,8.0,7.0,0.0,0.0,24.0,1.0
10,complete_monitoring_trial,,5,1856,TIMEOUT_monitoring,10,1606900106159,NA,NA,,,,,False,,,1239.0,1,UNKNOWN,,NA,NA,NA,NA,2.0,5,ASSUMED_FRIEND,673.0,199.0,0.0,1.0,4.0,False,1,5,NA,1.0,2.0,0.0,3.0,2.0,9.0,7.0,0.0,0.0,24.0,1.0
10,complete_monitoring_trial,,5,2111,CLICKED_monitoring,10,1606900115154,1606900116258,1104,,,,,True,,,1995.0,5,ASSUMED_FRIEND,,436,398,6,ASSUMED_HOSTILE,1.0,6,ASSUMED_HOSTILE,436.0,398.0,0.0,1.0,5.0,False,5,6,1,1.0,2.0,0.0,3.0,2.0,8.0,8.0,0.0,0.0,24.0,1.0
10,complete_monitoring_trial,,5,2489,TIMEOUT_monitoring,10,1606900118827,NA,NA,,,,,False,,,566.0,5,ASSUMED_FRIEND,,NA,NA,NA,NA,2.0,3,NEUTRAL,514.0,324.0,0.0,1.0,6.0,False,5,3,NA,1.0,3.0,0.0,3.0,2.0,7.0,8.0,0.0,0.0,24.0,1.0
10,complete_monitoring_trial,,5,2910,TIMEOUT_monitoring,10,1606900127255,NA,NA,,,,,False,,,1434.0,6,ASSUMED_HOSTILE,,NA,NA,NA,NA,0.0,3,NEUTRAL,549.0,243.0,0.0,1.0,7.0,False,6,3,NA,1.0,4.0,0.0,3.0,2.0,7.0,7.0,0.0,0.0,24.0,1.0
10,complete_monitoring_trial,,5,3343,TIMEOUT_monitoring,10,1606900135902,NA,NA,,,,,False,,,1663.0,3,NEUTRAL,,NA,NA,NA,NA,0.0,5,ASSUMED_FRIEND,534.0,307.0,0.0,1.0,8.0,False,3,5,NA,1.0,3.0,0.0,3.0,2.0,8.0,7.0,0.0,0.0,24.0,1.0
10,complete_monitoring_trial,,5,3769,TIMEOUT_monitoring,10,1606900144421,NA,NA,,,,,False,,,1516.0,1,UNKNOWN,,NA,NA,NA,NA,3.0,2,FRIEND,406.0,158.0,0.0,1.0,9.0,False,1,2,NA,1.0,3.0,0.0,2.0,3.0,8.0,7.0,0.0,0.0,24.0,1.0
10,complete_monitoring_trial,,5,4036,CLICKED_monitoring,10,1606900152240,1606900154770,2530,,,,,True,,,817.0,5,ASSUMED_FRIEND,,561,317,2,FRIEND,0.0,2,FRIEND,561.0,317.0,0.0,1.0,10.0,False,5,2,0,1.0,3.0,0.0,2.0,4.0,7.0,7.0,0.0,0.0,24.0,1.0
10,complete_monitoring_trial,,5,4430,TIMEOUT_monitoring,10,1606900157641,NA,NA,,,,,False,,,866.0,5,ASSUMED_FRIEND,,NA,NA,NA,NA,6.0,2,FRIEND,280.0,688.0,0.0,1.0,11.0,False,5,2,NA,1.0,3.0,0.0,2.0,5.0,6.0,7.0,0.0,0.0,24.0,1.0
10,complete_monitoring_trial,,5,4819,TIMEOUT_monitoring,10,1606900165429,NA,NA,,,,,False,,,786.0,6,ASSUMED_HOSTILE,,NA,NA,NA,NA,1.0,5,ASSUMED_FRIEND,584.0,179.0,0.0,1.0,12.0,False,6,5,NA,1.0,3.0,0.0,2.0,5.0,7.0,6.0,0.0,0.0,24.0,1.0
10,complete_monitoring_trial,,5,5220,TIMEOUT_monitoring,10,1606900173447,NA,NA,,,,,False,,,1024.0,5,ASSUMED_FRIEND,,NA,NA,NA,NA,1.0,2,FRIEND,519.0,155.0,0.0,1.0,13.0,False,5,2,NA,1.0,3.0,0.0,2.0,6.0,6.0,6.0,0.0,0.0,24.0,1.0
10,complete_monitoring_trial,,5,5607,TIMEOUT_monitoring,10,1606900181182,NA,NA,,,,,False,,,741.0,1,UNKNOWN,,NA,NA,NA,NA,4.0,2,FRIEND,356.0,470.0,0.0,1.0,14.0,False,1,2,NA,1.0,3.0,0.0,1.0,7.0,6.0,6.0,0.0,0.0,24.0,1.0
10,complete_monitoring_trial,,5,5994,TIMEOUT_monitoring,10,1606900188922,NA,NA,,,,,False,,,738.0,4,HOSTILE,,NA,NA,NA,NA,11.0,5,ASSUMED_FRIEND,616.0,577.0,0.0,1.0,15.0,False,4,5,NA,0.0,3.0,0.0,1.0,7.0,7.0,6.0,0.0,0.0,24.0,1.0
10,complete_monitoring_trial,,5,6416,TIMEOUT_monitoring,10,1606900197370,NA,NA,,,,,False,,,1449.0,1,UNKNOWN,,NA,NA,NA,NA,5.0,2,FRIEND,317.0,302.0,0.0,1.0,16.0,False,1,2,NA,0.0,3.0,0.0,0.0,8.0,7.0,6.0,0.0,0.0,24.0,1.0
10,complete_monitoring_trial,,5,6827,TIMEOUT_monitoring,10,1606900205586,NA,NA,,,,,False,,,1222.0,6,ASSUMED_HOSTILE,,NA,NA,NA,NA,18.0,4,HOSTILE,370.0,172.0,0.0,1.0,17.0,False,6,4,NA,1.0,3.0,0.0,0.0,8.0,7.0,5.0,0.0,0.0,24.0,1.0
10,complete_monitoring_trial,,5,7223,TIMEOUT_monitoring,10,1606900213519,NA,NA,,,,,False,,,933.0,6,ASSUMED_HOSTILE,,NA,NA,NA,NA,19.0,5,ASSUMED_FRIEND,190.0,418.0,0.0,1.0,18.0,False,6,5,NA,1.0,3.0,0.0,0.0,8.0,8.0,4.0,0.0,0.0,24.0,1.0
10,complete_monitoring_trial,,5,7608,TIMEOUT_monitoring,10,1606900221207,NA,NA,,,,,False,,,703.0,5,ASSUMED_FRIEND,,NA,NA,NA,NA,11.0,6,ASSUMED_HOSTILE,568.0,350.0,0.0,1.0,19.0,False,5,6,NA,1.0,3.0,0.0,0.0,8.0,7.0,5.0,0.0,0.0,24.0,1.0
10,complete_monitoring_trial,,5,8044,TIMEOUT_monitoring,10,1606900229928,NA,NA,,,,,False,,,1726.0,5,ASSUMED_FRIEND,,NA,NA,NA,NA,12.0,1,UNKNOWN,285.0,412.0,0.0,1.0,20.0,False,5,1,NA,1.0,3.0,0.0,1.0,8.0,6.0,5.0,0.0,0.0,24.0,1.0
10,complete_monitoring_trial,,5,8339,CLICKED_monitoring,10,1606900238408,1606900240834,2426,,,,,False,,,1484.0,5,ASSUMED_FRIEND,,254,318,2,FRIEND,13.0,2,FRIEND,268.0,227.0,0.0,1.0,21.0,False,5,2,1,1.0,3.0,0.0,1.0,9.0,5.0,5.0,0.0,0.0,24.0,1.0
10,complete_monitoring_trial,,5,8722,TIMEOUT_monitoring,10,1606900243496,NA,NA,,,,,False,,,655.0,6,ASSUMED_HOSTILE,,NA,NA,NA,NA,11.0,2,FRIEND,544.0,401.0,0.0,1.0,22.0,False,6,2,NA,1.0,3.0,0.0,1.0,10.0,5.0,4.0,0.0,0.0,24.0,1.0
10,complete_monitoring_trial,,5,9144,TIMEOUT_monitoring,10,1606900251933,NA,NA,,,,,False,,,1450.0,1,UNKNOWN,,NA,NA,NA,NA,12.0,3,NEUTRAL,231.0,350.0,0.0,1.0,23.0,False,1,3,NA,1.0,4.0,0.0,0.0,10.0,5.0,4.0,0.0,0.0,24.0,1.0
10,complete_monitoring_trial,,5,9574,TIMEOUT_monitoring,10,1606900260539,NA,NA,,,,,False,,,1609.0,2,FRIEND,,NA,NA,NA,NA,0.0,1,UNKNOWN,372.0,313.0,0.0,1.0,24.0,False,2,1,NA,1.0,4.0,0.0,1.0,9.0,5.0,4.0,0.0,0.0,24.0,1.0
10,complete_monitoring_trial,,5,9914,CLICKED_monitoring,10,1606900268189,1606900272324,4135,,,,,True,,,665.0,5,ASSUMED_FRIEND,,187,404,4,HOSTILE,14.0,4,HOSTILE,187.0,404.0,0.0,1.0,25.0,False,5,4,14,2.0,4.0,0.0,1.0,9.0,4.0,4.0,0.0,0.0,24.0,1.0
10,complete_monitoring_trial,,5,10298,TIMEOUT_monitoring,10,1606900275006,NA,NA,,,,,False,,,680.0,1,UNKNOWN,,NA,NA,NA,NA,0.0,6,ASSUMED_HOSTILE,291.0,292.0,0.0,1.0,26.0,False,1,6,NA,2.0,4.0,0.0,0.0,9.0,4.0,5.0,0.0,0.0,24.0,1.0
