id_participant,condition,uncertaintyCondition,backgroundCondition,experiment_phase,round,trial,correct,completed_by,reaction_time,category,category_selected,category_id,category_selected_id,trained,iti_trial,previous_category_id,previous_category,selected_id,current_position_entity_selected_x,current_position_entity_selected_y,selected_entity_category_id,selected_entity_category,changed_entity_id,changed_entity_category_id,changed_entity_category,current_position_entity_changed_x,current_position_entity_changed_y,first_round,second_round,no_change,from_category_id,to_category_id,selected_entity_id,HOSTILE_entities,NEUTRAL_entities,PENDING_entities,UNKNOWN_entities,FRIEND_entities,ASSUMED_FRIEND_entities,ASSUMED_HOSTILE_entities,UNCERTAIN_FRIEND_entities,UNCERTAIN_HOSTILE_entities,total_entities_second_round
1,control_black,control,black,categoryLearning,,1,1,CLICKED,3292,FRIEND,FRIEND,2,2,1,,,"",,,,,"",,,"",,,,,,,,,,,,,,,,,,
1,control_black,control,black,categoryLearning,,2,1,CLICKED,1853,HOSTILE,HOSTILE,4,4,1,,,"",,,,,"",,,"",,,,,,,,,,,,,,,,,,
1,control_black,control,black,categoryLearning,,3,0,CLICKED,1366,UNKNOWN,NEUTRAL,1,3,1,,,"",,,,,"",,,"",,,,,,,,,,,,,,,,,,
1,control_black,control,black,categoryLearning,,4,1,CLICKED,823,NEUTRAL,NEUTRAL,3,3,1,,,"",,,,,"",,,"",,,,,,,,,,,,,,,,,,
1,control_black,control,black,categoryLearning,,5,0,TIMEOUT,,UNKNOWN,,1,,1,,,"",,,,,"",,,"",,,,,,,,,,,,,,,,,,
1,control_black,control,black,categoryLearning,,6,1,CLICKED,1215,NEUTRAL,NEUTRAL,3,3,1,,,"",,,,,"",,,"",,,,,,,,,,,,,,,,,,
1,control_black,control,black,categoryLearning,,7,1,CLICKED,1265,HOSTILE,HOSTILE,4,4,1,,,"",,,,,"",,,"",,,,,,,,,,,,,,,,,,
1,control_black,control,black,categoryLearning,,8,1,CLICKED,1247,FRIEND,FRIEND,2,2,1,,,"",,,,,"",,,"",,,,,,,,,,,,,,,,,,
1,control_black,control,black,categoryLearning,,9,1,CLICKED,1009,UNKNOWN,UNKNOWN,1,1,1,,,"",,,,,"",,,"",,,,,,,,,,,,,,,,,,
1,control_black,control,black,categoryLearning,,10,1,CLICKED,1698,HOSTILE,HOSTILE,4,4,1,,,"",,,,,"",,,"",,,,,,,,,,,,,,,,,,
1,control_black,control,black,practiceMonitoring,,1,1,CLICKED,1105,"","",,,,1961,4,HOSTILE,0,349,341,3,NEUTRAL,0,3,NEUTRAL,349,341,,,,,,,,,,,,,,,,
1,control_black,control,black,practiceMonitoring,,2,1,CLICKED,1046,"","",,,,659,3,NEUTRAL,1,328,325,1,UNKNOWN,1,1,UNKNOWN,328,325,,,,,,,,,,,,,,,,
1,control_black,control,black,practiceMonitoring,,3,1,CLICKED,1674,"","",,,,1577,1,UNKNOWN,2,355,477,2,FRIEND,2,2,FRIEND,355,477,,,,,,,,,,,,,,,,
1,control_black,control,black,monitoring,1,1,1,CLICKED,1100,"","",,,,988,6,ASSUMED_HOSTILE,,759,327,3,NEUTRAL,18,3,NEUTRAL,759,327,0,1,FALSE,6,3,18,2,3,0,6,2,6,5,0,0,24
1,control_black,control,black,monitoring,1,2,0,TIMEOUT,,"","",,,,509,3,NEUTRAL,,,,,,8,4,HOSTILE,684,125,0,1,FALSE,3,4,,3,2,0,6,2,6,5,0,0,24
1,control_black,control,black,monitoring,1,3,0,TIMEOUT,,"","",,,,736,1,UNKNOWN,,,,,,0,4,HOSTILE,696,92,0,1,FALSE,1,4,,4,2,0,5,2,6,5,0,0,24
1,control_black,control,black,monitoring,1,4,0,TIMEOUT,,"","",,,,1177,2,FRIEND,,,,,,6,3,NEUTRAL,293,575,0,1,FALSE,2,3,,4,3,0,5,1,6,5,0,0,24
1,control_black,control,black,monitoring,1,5,0,TIMEOUT,,"","",,,,607,6,ASSUMED_HOSTILE,,,,,,19,1,UNKNOWN,321,284,0,1,FALSE,6,1,,4,3,0,6,1,6,4,0,0,24
1,control_black,control,black,monitoring,1,6,0,TIMEOUT,,"","",,,,1596,3,NEUTRAL,,,,,,6,5,ASSUMED_FRIEND,266,649,0,1,FALSE,3,5,,4,2,0,6,1,7,4,0,0,24
1,control_black,control,black,monitoring,1,7,1,CLICKED,1916,"","",,,,576,1,UNKNOWN,,424,364,6,ASSUMED_HOSTILE,1,6,ASSUMED_HOSTILE,424,364,0,1,FALSE,1,6,1,4,2,0,5,1,7,5,0,0,24
1,control_black,control,black,monitoring,1,8,0,CLICKED,1961,"","",,,,1647,1,UNKNOWN,,298,579,5,ASSUMED_FRIEND,2,2,FRIEND,336,211,0,1,FALSE,1,2,16,4,2,0,4,2,7,5,0,0,24
1,control_black,control,black,monitoring,1,9,0,TIMEOUT,,"","",,,,1916,3,NEUTRAL,,,,,,9,2,FRIEND,522,200,0,1,FALSE,3,2,,4,1,0,4,3,7,5,0,0,24
1,control_black,control,black,monitoring,1,10,0,CLICKED,1269,"","",,,,1062,5,ASSUMED_FRIEND,,366,469,4,HOSTILE,6,4,HOSTILE,290,514,0,1,FALSE,5,4,11,5,1,0,4,3,6,5,0,0,24
1,control_black,control,black,monitoring,1,11,0,TIMEOUT,,"","",,,,1174,5,ASSUMED_FRIEND,,,,,,12,1,UNKNOWN,745,572,0,1,FALSE,5,1,,5,1,0,5,3,5,5,0,0,24
1,control_black,control,black,monitoring,1,12,0,TIMEOUT,,"","",,,,1263,5,ASSUMED_FRIEND,,,,,,13,2,FRIEND,350,566,0,1,FALSE,5,2,,5,1,0,5,4,4,5,0,0,24
1,control_black,control,black,monitoring,1,13,0,TIMEOUT,,"","",,,,1588,1,UNKNOWN,,,,,,3,3,NEUTRAL,596,628,0,1,FALSE,1,3,,5,2,0,4,4,4,5,0,0,24
1,control_black,control,black,monitoring,1,14,0,CLICKED,1044,"","",,,,1590,1,UNKNOWN,,422,627,3,NEUTRAL,4,6,ASSUMED_HOSTILE,183,496,0,1,FALSE,1,6,3,5,2,0,3,4,4,6,0,0,24
1,control_black,control,black,monitoring,1,15,1,CLICKED,4422,"","",,,,1226,1,UNKNOWN,,509,167,2,FRIEND,5,2,FRIEND,509,167,0,1,FALSE,1,2,5,5,2,0,2,5,4,6,0,0,24
1,control_black,control,black,monitoring,1,16,0,TIMEOUT,,"","",,,,1725,6,ASSUMED_HOSTILE,,,,,,1,4,HOSTILE,454,471,0,1,FALSE,6,4,,6,2,0,2,5,4,5,0,0,24
1,control_black,control,black,monitoring,1,17,0,TIMEOUT,,"","",,,,566,6,ASSUMED_HOSTILE,,,,,,4,5,ASSUMED_FRIEND,157,522,0,1,FALSE,6,5,,6,2,0,2,5,5,4,0,0,24
1,control_black,control,black,monitoring,1,18,1,CLICKED,1395,"","",,,,880,1,UNKNOWN,,386,464,5,ASSUMED_FRIEND,12,5,ASSUMED_FRIEND,386,464,0,1,FALSE,1,5,12,6,2,0,1,5,6,4,0,0,24
1,control_black,control,black,monitoring,1,19,0,TIMEOUT,,"","",,,,1751,1,UNKNOWN,,,,,,19,3,NEUTRAL,456,624,0,1,FALSE,1,3,,6,3,0,0,5,6,4,0,0,24
1,control_black,control,black,monitoring,1,20,0,CLICKED,282,"","",,,,1677,4,HOSTILE,,262,564,3,NEUTRAL,0,1,UNKNOWN,189,235,0,1,FALSE,4,1,18,5,3,0,1,5,6,4,0,0,24
1,control_black,control,black,monitoring,1,21,0,TIMEOUT,,"","",,,,907,5,ASSUMED_FRIEND,,,,,,4,2,FRIEND,383,528,0,1,FALSE,5,2,,5,3,0,1,6,5,4,0,0,24
1,control_black,control,black,monitoring,1,22,1,CLICKED,1941,"","",,,,1644,5,ASSUMED_FRIEND,,203,355,1,UNKNOWN,12,1,UNKNOWN,203,355,0,1,FALSE,5,1,12,5,3,0,2,6,4,4,0,0,24
1,control_black,control,black,monitoring,1,23,1,CLICKED,1595,"","",,,,1460,5,ASSUMED_FRIEND,,371,347,6,ASSUMED_HOSTILE,14,6,ASSUMED_HOSTILE,371,347,0,1,FALSE,5,6,14,5,3,0,2,6,3,5,0,0,24
1,control_black,control,black,monitoring,1,24,0,CLICKED,3319,"","",,,,1915,5,ASSUMED_FRIEND,,632,681,3,NEUTRAL,15,3,NEUTRAL,318,644,0,1,FALSE,5,3,18,5,4,0,2,6,2,5,0,0,24
1,control_black,control,black,monitoring,1,25,0,TIMEOUT,,"","",,,,1513,4,HOSTILE,,,,,,1,5,ASSUMED_FRIEND,398,442,0,1,FALSE,4,5,,4,4,0,2,6,3,5,0,0,24
1,control_black,control,black,monitoring,1,26,0,TIMEOUT,,"","",,,,944,1,UNKNOWN,,,,,,0,3,NEUTRAL,524,240,0,1,FALSE,1,3,,4,5,0,1,6,3,5,0,0,24
1,control_black,control,black,monitoring,1,27,0,TIMEOUT,,"","",,,,1582,5,ASSUMED_FRIEND,,,,,,1,6,ASSUMED_HOSTILE,472,644,0,1,FALSE,5,6,,4,5,0,1,6,2,6,0,0,24
1,control_black,control,black,monitoring,1,28,0,TIMEOUT,,"","",,,,1339,5,ASSUMED_FRIEND,,,,,,16,4,HOSTILE,180,231,0,1,FALSE,5,4,,5,5,0,1,6,1,6,0,0,24
1,control_black,control,black,monitoring,1,29,0,TIMEOUT,,"","",,,,1514,5,ASSUMED_FRIEND,,,,,,17,2,FRIEND,524,328,0,1,FALSE,5,2,,5,5,0,1,7,0,6,0,0,24
1,control_black,control,black,monitoring,1,30,0,TIMEOUT,,"","",,,,1574,6,ASSUMED_HOSTILE,,,,,,1,2,FRIEND,378,149,0,1,FALSE,6,2,,5,5,0,1,8,0,5,0,0,24
1,control_black,control,black,monitoring,2,1,0,TIMEOUT,,"","",,,,809,5,ASSUMED_FRIEND,,,,,,12,2,FRIEND,112,252,0,1,FALSE,5,2,,2,2,0,6,3,5,6,0,0,24
1,control_black,control,black,monitoring,2,2,0,CLICKED,2752,"","",,,,1489,6,ASSUMED_HOSTILE,,690,666,3,NEUTRAL,18,3,NEUTRAL,486,499,0,1,FALSE,6,3,8,2,3,0,6,3,5,5,0,0,24
1,control_black,control,black,monitoring,2,3,0,TIMEOUT,,"","",,,,1019,6,ASSUMED_HOSTILE,,,,,,19,1,UNKNOWN,55,75,0,1,FALSE,6,1,,2,3,0,7,3,5,4,0,0,24
1,control_black,control,black,monitoring,2,4,0,CLICKED,1474,"","",,,,1837,5,ASSUMED_FRIEND,,134,502,3,NEUTRAL,13,1,UNKNOWN,224,626,0,1,FALSE,5,1,9,2,3,0,8,3,4,4,0,0,24
1,control_black,control,black,monitoring,2,5,0,TIMEOUT,,"","",,,,1848,5,ASSUMED_FRIEND,,,,,,14,3,NEUTRAL,183,675,0,1,FALSE,5,3,,2,4,0,8,3,3,4,0,0,24
1,control_black,control,black,monitoring,2,6,0,TIMEOUT,,"","",,,,705,6,ASSUMED_HOSTILE,,,,,,20,4,HOSTILE,260,183,0,1,FALSE,6,4,,3,4,0,8,3,3,3,0,0,24
1,control_black,control,black,monitoring,2,7,0,TIMEOUT,,"","",,,,1860,1,UNKNOWN,,,,,,0,2,FRIEND,458,473,0,1,FALSE,1,2,,3,4,0,7,4,3,3,0,0,24
1,control_black,control,black,monitoring,2,8,0,TIMEOUT,,"","",,,,1752,1,UNKNOWN,,,,,,1,6,ASSUMED_HOSTILE,398,360,0,1,FALSE,1,6,,3,4,0,6,4,3,4,0,0,24
1,control_black,control,black,monitoring,2,9,0,TIMEOUT,,"","",,,,1296,6,ASSUMED_HOSTILE,,,,,,1,4,HOSTILE,397,285,0,1,FALSE,6,4,,4,4,0,6,4,3,3,0,0,24
1,control_black,control,black,monitoring,2,10,0,TIMEOUT,,"","",,,,1360,1,UNKNOWN,,,,,,2,4,HOSTILE,502,393,0,1,FALSE,1,4,,5,4,0,5,4,3,3,0,0,24
1,control_black,control,black,monitoring,2,11,0,TIMEOUT,,"","",,,,1122,4,HOSTILE,,,,,,1,6,ASSUMED_HOSTILE,361,323,0,1,FALSE,4,6,,4,4,0,5,4,3,4,0,0,24
1,control_black,control,black,monitoring,2,12,0,TIMEOUT,,"","",,,,1055,5,ASSUMED_FRIEND,,,,,,15,6,ASSUMED_HOSTILE,623,141,0,1,FALSE,5,6,,4,4,0,5,4,2,5,0,0,24
1,control_black,control,black,monitoring,2,13,0,TIMEOUT,,"","",,,,1278,5,ASSUMED_FRIEND,,,,,,16,3,NEUTRAL,527,690,0,1,FALSE,5,3,,4,5,0,5,4,1,5,0,0,24
1,control_black,control,black,monitoring,2,14,0,CLICKED,48,"","",,,,571,5,ASSUMED_FRIEND,,348,113,3,NEUTRAL,17,1,UNKNOWN,407,536,0,1,FALSE,5,1,9,4,5,0,6,4,0,5,0,0,24
1,control_black,control,black,monitoring,2,15,0,TIMEOUT,,"","",,,,771,6,ASSUMED_HOSTILE,,,,,,1,5,ASSUMED_FRIEND,419,300,0,1,FALSE,6,5,,4,5,0,6,4,1,4,0,0,24
1,control_black,control,black,monitoring,2,16,0,TIMEOUT,,"","",,,,1308,6,ASSUMED_HOSTILE,,,,,,15,2,FRIEND,579,300,0,1,FALSE,6,2,,4,5,0,6,5,1,3,0,0,24
1,control_black,control,black,monitoring,2,17,0,TIMEOUT,,"","",,,,1706,6,ASSUMED_HOSTILE,,,,,,21,1,UNKNOWN,293,365,0,1,FALSE,6,1,,4,5,0,7,5,1,2,0,0,24
1,control_black,control,black,monitoring,2,18,0,CLICKED,1147,"","",,,,1673,4,HOSTILE,,405,440,1,UNKNOWN,2,2,FRIEND,486,89,0,1,FALSE,4,2,21,3,5,0,7,6,1,2,0,0,24
1,control_black,control,black,monitoring,2,19,0,CLICKED,51,"","",,,,1721,6,ASSUMED_HOSTILE,,485,238,2,FRIEND,22,4,HOSTILE,260,685,0,1,FALSE,6,4,6,4,5,0,7,6,1,1,0,0,24
1,control_black,control,black,monitoring,2,20,0,TIMEOUT,,"","",,,,1263,4,HOSTILE,,,,,,10,3,NEUTRAL,298,359,0,1,FALSE,4,3,,3,6,0,7,6,1,1,0,0,24
1,control_black,control,black,monitoring,2,21,0,TIMEOUT,,"","",,,,1058,6,ASSUMED_HOSTILE,,,,,,23,5,ASSUMED_FRIEND,306,618,0,1,FALSE,6,5,,3,6,0,7,6,2,0,0,0,24
1,control_black,control,black,monitoring,2,22,0,CLICKED,681,"","",,,,1403,1,UNKNOWN,,407,150,3,NEUTRAL,3,6,ASSUMED_HOSTILE,255,407,0,1,FALSE,1,6,8,3,6,0,6,6,2,1,0,0,24
1,control_black,control,black,monitoring,2,23,0,TIMEOUT,,"","",,,,776,6,ASSUMED_HOSTILE,,,,,,3,2,FRIEND,202,331,0,1,FALSE,6,2,,3,6,0,6,7,2,0,0,0,24
1,control_black,control,black,monitoring,2,24,1,CLICKED,1674,"","",,,,1782,1,UNKNOWN,,302,349,4,HOSTILE,4,4,HOSTILE,302,349,0,1,FALSE,1,4,4,4,6,0,5,7,2,0,0,0,24
1,control_black,control,black,monitoring,2,25,0,TIMEOUT,,"","",,,,819,5,ASSUMED_FRIEND,,,,,,1,4,HOSTILE,422,601,0,1,FALSE,5,4,,5,6,0,5,7,1,0,0,0,24
1,control_black,control,black,monitoring,2,26,0,TIMEOUT,,"","",,,,1933,3,NEUTRAL,,,,,,8,6,ASSUMED_HOSTILE,224,620,0,1,FALSE,3,6,,5,5,0,5,7,1,1,0,0,24
1,control_black,control,black,monitoring,2,27,0,TIMEOUT,,"","",,,,1707,6,ASSUMED_HOSTILE,,,,,,8,3,NEUTRAL,381,507,0,1,FALSE,6,3,,5,6,0,5,7,1,0,0,0,24
1,control_black,control,black,monitoring,2,28,0,TIMEOUT,,"","",,,,693,5,ASSUMED_FRIEND,,,,,,23,6,ASSUMED_HOSTILE,441,311,0,1,FALSE,5,6,,5,6,0,5,7,0,1,0,0,24
1,control_black,control,black,monitoring,2,29,0,CLICKED,47,"","",,,,1497,1,UNKNOWN,,671,42,2,FRIEND,5,5,ASSUMED_FRIEND,210,219,0,1,FALSE,1,5,0,5,6,0,4,7,1,1,0,0,24
1,control_black,control,black,monitoring,2,30,0,TIMEOUT,,"","",,,,845,3,NEUTRAL,,,,,,8,1,UNKNOWN,471,341,0,1,FALSE,3,1,,5,5,0,5,7,1,1,0,0,24
1,control_black,control,black,monitoring,3,1,0,TIMEOUT,,"","",,,,1155,1,UNKNOWN,,,,,,0,2,FRIEND,283,432,0,1,FALSE,1,2,,2,2,0,5,3,6,6,0,0,24
1,control_black,control,black,monitoring,3,2,0,TIMEOUT,,"","",,,,1139,1,UNKNOWN,,,,,,1,3,NEUTRAL,609,674,0,1,FALSE,1,3,,2,3,0,4,3,6,6,0,0,24
1,control_black,control,black,monitoring,3,3,0,CLICKED,2814,"","",,,,881,5,ASSUMED_FRIEND,,359,358,3,NEUTRAL,12,4,HOSTILE,588,397,0,1,FALSE,5,4,9,3,3,0,4,3,5,6,0,0,24
1,control_black,control,black,monitoring,3,4,0,CLICKED,160,"","",,,,1006,2,FRIEND,,369,409,3,NEUTRAL,0,4,HOSTILE,137,165,0,1,FALSE,2,4,9,4,3,0,4,2,5,6,0,0,24
1,control_black,control,black,monitoring,3,5,0,TIMEOUT,,"","",,,,1226,1,UNKNOWN,,,,,,2,5,ASSUMED_FRIEND,358,180,0,1,FALSE,1,5,,4,3,0,3,2,6,6,0,0,24
1,control_black,control,black,monitoring,3,6,0,TIMEOUT,,"","",,,,1458,5,ASSUMED_FRIEND,,,,,,2,4,HOSTILE,400,185,0,1,FALSE,5,4,,5,3,0,3,2,5,6,0,0,24
1,control_black,control,black,monitoring,3,7,0,TIMEOUT,,"","",,,,1085,1,UNKNOWN,,,,,,3,4,HOSTILE,443,410,0,1,FALSE,1,4,,6,3,0,2,2,5,6,0,0,24
1,control_black,control,black,monitoring,3,8,0,TIMEOUT,,"","",,,,850,6,ASSUMED_HOSTILE,,,,,,18,2,FRIEND,280,337,0,1,FALSE,6,2,,6,3,0,2,3,5,5,0,0,24
1,control_black,control,black,monitoring,3,9,1,CLICKED,1280,"","",,,,1356,6,ASSUMED_HOSTILE,,469,350,3,NEUTRAL,19,3,NEUTRAL,469,350,0,1,FALSE,6,3,19,6,4,0,2,3,5,4,0,0,24
1,control_black,control,black,monitoring,3,10,0,TIMEOUT,,"","",,,,1402,6,ASSUMED_HOSTILE,,,,,,20,4,HOSTILE,593,639,0,1,FALSE,6,4,,7,4,0,2,3,5,3,0,0,24
1,control_black,control,black,monitoring,3,11,0,TIMEOUT,,"","",,,,926,5,ASSUMED_FRIEND,,,,,,13,1,UNKNOWN,625,546,0,1,FALSE,5,1,,7,4,0,3,3,4,3,0,0,24
1,control_black,control,black,monitoring,3,12,0,TIMEOUT,,"","",,,,1113,6,ASSUMED_HOSTILE,,,,,,21,1,UNKNOWN,489,247,0,1,FALSE,6,1,,7,4,0,4,3,4,2,0,0,24
1,control_black,control,black,monitoring,3,13,0,CLICKED,391,"","",,,,588,1,UNKNOWN,,530,140,1,UNKNOWN,4,6,ASSUMED_HOSTILE,553,253,0,1,FALSE,1,6,21,7,4,0,3,3,4,3,0,0,24
1,control_black,control,black,monitoring,3,14,0,CLICKED,181,"","",,,,1329,1,UNKNOWN,,498,276,6,ASSUMED_HOSTILE,5,3,NEUTRAL,234,378,0,1,FALSE,1,3,4,7,5,0,2,3,4,3,0,0,24
1,control_black,control,black,monitoring,3,15,0,CLICKED,862,"","",,,,1429,2,FRIEND,,558,318,1,UNKNOWN,6,5,ASSUMED_FRIEND,408,232,0,1,FALSE,2,5,13,7,5,0,2,2,5,3,0,0,24
1,control_black,control,black,monitoring,3,16,0,TIMEOUT,,"","",,,,570,6,ASSUMED_HOSTILE,,,,,,4,5,ASSUMED_FRIEND,633,204,0,1,FALSE,6,5,,7,5,0,2,2,6,2,0,0,24
1,control_black,control,black,monitoring,3,17,0,CLICKED,673,"","",,,,1262,5,ASSUMED_FRIEND,,567,356,3,NEUTRAL,4,6,ASSUMED_HOSTILE,689,309,0,1,FALSE,5,6,19,7,5,0,2,2,5,3,0,0,24
1,control_black,control,black,monitoring,3,18,0,CLICKED,583,"","",,,,916,1,UNKNOWN,,699,358,3,NEUTRAL,13,5,ASSUMED_FRIEND,654,150,0,1,FALSE,1,5,19,7,5,0,1,2,6,3,0,0,24
1,control_black,control,black,monitoring,3,19,0,CLICKED,14,"","",,,,638,5,ASSUMED_FRIEND,,138,196,3,NEUTRAL,6,3,NEUTRAL,510,175,0,1,FALSE,5,3,5,7,6,0,1,2,5,3,0,0,24
1,control_black,control,black,monitoring,3,20,0,TIMEOUT,,"","",,,,506,6,ASSUMED_HOSTILE,,,,,,4,2,FRIEND,504,307,0,1,FALSE,6,2,,7,6,0,1,3,5,2,0,0,24
1,control_black,control,black,monitoring,3,21,1,CLICKED,1647,"","",,,,1895,2,FRIEND,,633,136,6,ASSUMED_HOSTILE,4,6,ASSUMED_HOSTILE,633,136,0,1,FALSE,2,6,4,7,6,0,1,2,5,3,0,0,24
1,control_black,control,black,monitoring,3,22,0,TIMEOUT,,"","",,,,1349,5,ASSUMED_FRIEND,,,,,,13,2,FRIEND,627,729,0,1,FALSE,5,2,,7,6,0,1,3,4,3,0,0,24
1,control_black,control,black,monitoring,3,23,0,TIMEOUT,,"","",,,,845,6,ASSUMED_HOSTILE,,,,,,4,3,NEUTRAL,366,239,0,1,FALSE,6,3,,7,7,0,1,3,4,2,0,0,24
1,control_black,control,black,monitoring,3,24,1,CLICKED,3741,"","",,,,522,1,UNKNOWN,,318,314,4,HOSTILE,21,4,HOSTILE,318,314,0,1,FALSE,1,4,21,8,7,0,0,3,4,2,0,0,24
1,control_black,control,black,monitoring,3,25,0,TIMEOUT,,"","",,,,1891,6,ASSUMED_HOSTILE,,,,,,22,1,UNKNOWN,194,150,0,1,FALSE,6,1,,8,7,0,1,3,4,1,0,0,24
1,control_black,control,black,monitoring,3,26,0,TIMEOUT,,"","",,,,1897,1,UNKNOWN,,,,,,22,5,ASSUMED_FRIEND,295,346,0,1,FALSE,1,5,,8,7,0,0,3,5,1,0,0,24
1,control_black,control,black,monitoring,3,27,0,CLICKED,467,"","",,,,713,2,FRIEND,,499,354,3,NEUTRAL,7,1,UNKNOWN,325,506,0,1,FALSE,2,1,8,8,7,0,1,2,5,1,0,0,24
1,control_black,control,black,monitoring,3,28,0,CLICKED,2121,"","",,,,715,5,ASSUMED_FRIEND,,304,676,1,UNKNOWN,14,3,NEUTRAL,589,425,0,1,FALSE,5,3,7,8,8,0,1,2,4,1,0,0,24
1,control_black,control,black,monitoring,3,29,0,CLICKED,207,"","",,,,1591,6,ASSUMED_HOSTILE,,386,637,1,UNKNOWN,23,5,ASSUMED_FRIEND,248,230,0,1,FALSE,6,5,7,8,8,0,1,2,5,0,0,0,24
1,control_black,control,black,monitoring,3,30,0,TIMEOUT,,"","",,,,1424,1,UNKNOWN,,,,,,7,2,FRIEND,202,387,0,1,FALSE,1,2,,8,8,0,0,3,5,0,0,0,24
2,control_black,control,black,categoryLearning,,1,0,TIMEOUT,,UNKNOWN,,1,,1,,,"",,,,,"",,,"",,,,,,,,,,,,,,,,,,
2,control_black,control,black,categoryLearning,,2,0,TIMEOUT,,HOSTILE,,4,,1,,,"",,,,,"",,,"",,,,,,,,,,,,,,,,,,
2,control_black,control,black,categoryLearning,,3,0,CLICKED,1132,NEUTRAL,UNKNOWN,3,1,1,,,"",,,,,"",,,"",,,,,,,,,,,,,,,,,,
2,control_black,control,black,categoryLearning,,4,0,CLICKED,1215,FRIEND,HOSTILE,2,4,1,,,"",,,,,"",,,"",,,,,,,,,,,,,,,,,,
2,control_black,control,black,categoryLearning,,5,0,CLICKED,1171,UNKNOWN,NEUTRAL,1,3,1,,,"",,,,,"",,,"",,,,,,,,,,,,,,,,,,
2,control_black,control,black,categoryLearning,,6,1,CLICKED,1254,HOSTILE,HOSTILE,4,4,1,,,"",,,,,"",,,"",,,,,,,,,,,,,,,,,,
2,control_black,control,black,categoryLearning,,7,1,CLICKED,1051,FRIEND,FRIEND,2,2,1,,,"",,,,,"",,,"",,,,,,,,,,,,,,,,,,
2,control_black,control,black,categoryLearning,,8,1,CLICKED,2317,NEUTRAL,NEUTRAL,3,3,1,,,"",,,,,"",,,"",,,,,,,,,,,,,,,,,,
2,control_black,control,black,categoryLearning,,9,1,CLICKED,1241,HOSTILE,HOSTILE,4,4,1,,,"",,,,,"",,,"",,,,,,,,,,,,,,,,,,
2,control_black,control,black,categoryLearning,,10,1,CLICKED,1096,UNKNOWN,UNKNOWN,1,1,1,,,"",,,,,"",,,"",,,,,,,,,,,,,,,,,,
2,control_black,control,black,categoryLearning,,11,1,CLICKED,713,NEUTRAL,NEUTRAL,3,3,1,,,"",,,,,"",,,"",,,,,,,,,,,,,,,,,,
2,control_black,control,black,categoryLearning,,12,1,CLICKED,1640,FRIEND,FRIEND,2,2,1,,,"",,,,,"",,,"",,,,,,,,,,,,,,,,,,
2,control_black,control,black,categoryLearning,,13,1,CLICKED,1115,UNKNOWN,UNKNOWN,1,1,1,,,"",,,,,"",,,"",,,,,,,,,,,,,,,,,,
2,control_black,control,black,practiceMonitoring,,1,0,TIMEOUT,,"","",,,,941,4,HOSTILE,,,,,,0,3,NEUTRAL,692,454,,,,,,,,,,,,,,,,
2,control_black,control,black,practiceMonitoring,,2,1,CLICKED,2322,"","",,,,1441,3,NEUTRAL,1,412,513,1,UNKNOWN,1,1,UNKNOWN,412,513,,,,,,,,,,,,,,,,
2,control_black,control,black,practiceMonitoring,,3,1,CLICKED,1190,"","",,,,1667,1,UNKNOWN,2,319,630,2,FRIEND,2,2,FRIEND,319,630,,,,,,,,,,,,,,,,
2,control_black,control,black,monitoring,1,1,0,TIMEOUT,,"","",,,,1734,1,UNKNOWN,,,,,,0,4,HOSTILE,82,185,0,1,FALSE,1,4,,3,2,0,5,2,6,6,0,0,24
2,control_black,control,black,monitoring,1,2,1,CLICKED,998,"","",,,,812,6,ASSUMED_HOSTILE,,642,221,5,ASSUMED_FRIEND,18,5,ASSUMED_FRIEND,642,221,0,1,FALSE,6,5,18,3,2,0,5,2,7,5,0,0,24
2,control_black,control,black,monitoring,1,3,0,TIMEOUT,,"","",,,,874,5,ASSUMED_FRIEND,,,,,,12,1,UNKNOWN,9,383,0,1,FALSE,5,1,,3,2,0,6,2,6,5,0,0,24
2,control_black,control,black,monitoring,1,4,0,TIMEOUT,,"","",,,,1371,1,UNKNOWN,,,,,,1,2,FRIEND,166,74,0,1,FALSE,1,2,,3,2,0,5,3,6,5,0,0,24
2,control_black,control,black,monitoring,1,5,1,CLICKED,799,"","",,,,741,6,ASSUMED_HOSTILE,,223,318,2,FRIEND,19,2,FRIEND,223,318,0,1,FALSE,6,2,19,3,2,0,5,4,6,4,0,0,24
2,control_black,control,black,monitoring,1,6,1,CLICKED,852,"","",,,,949,6,ASSUMED_HOSTILE,,187,398,1,UNKNOWN,20,1,UNKNOWN,187,398,0,1,FALSE,6,1,20,3,2,0,6,4,6,3,0,0,24
2,control_black,control,black,monitoring,1,7,1,CLICKED,921,"","",,,,1280,1,UNKNOWN,,657,312,5,ASSUMED_FRIEND,2,5,ASSUMED_FRIEND,657,312,0,1,FALSE,1,5,2,3,2,0,5,4,7,3,0,0,24
2,control_black,control,black,monitoring,1,8,1,CLICKED,676,"","",,,,667,1,UNKNOWN,,213,449,6,ASSUMED_HOSTILE,3,6,ASSUMED_HOSTILE,213,449,0,1,FALSE,1,6,3,3,2,0,4,4,7,4,0,0,24
2,control_black,control,black,monitoring,1,9,0,TIMEOUT,,"","",,,,1815,6,ASSUMED_HOSTILE,,,,,,3,3,NEUTRAL,503,377,0,1,FALSE,6,3,,3,3,0,4,4,7,3,0,0,24
2,control_black,control,black,monitoring,1,10,1,CLICKED,981,"","",,,,1657,5,ASSUMED_FRIEND,,686,125,3,NEUTRAL,2,3,NEUTRAL,686,125,0,1,FALSE,5,3,2,3,4,0,4,4,6,3,0,0,24
2,control_black,control,black,monitoring,1,11,0,TIMEOUT,,"","",,,,1008,2,FRIEND,,,,,,1,5,ASSUMED_FRIEND,696,113,0,1,FALSE,2,5,,3,4,0,4,3,7,3,0,0,24
2,control_black,control,black,monitoring,1,12,1,CLICKED,586,"","",,,,1726,1,UNKNOWN,,514,373,3,NEUTRAL,4,3,NEUTRAL,514,373,0,1,FALSE,1,3,4,3,5,0,3,3,7,3,0,0,24
2,control_black,control,black,monitoring,1,13,1,CLICKED,783,"","",,,,1075,3,NEUTRAL,,294,296,2,FRIEND,2,2,FRIEND,294,296,0,1,FALSE,3,2,2,3,4,0,3,4,7,3,0,0,24
2,control_black,control,black,monitoring,1,14,1,CLICKED,635,"","",,,,1645,1,UNKNOWN,,310,372,5,ASSUMED_FRIEND,5,5,ASSUMED_FRIEND,310,372,0,1,FALSE,1,5,5,3,4,0,2,4,8,3,0,0,24
2,control_black,control,black,monitoring,1,15,1,CLICKED,935,"","",,,,1578,6,ASSUMED_HOSTILE,,457,580,2,FRIEND,21,2,FRIEND,457,580,0,1,FALSE,6,2,21,3,4,0,2,5,8,2,0,0,24
2,control_black,control,black,monitoring,1,16,1,CLICKED,892,"","",,,,1350,4,HOSTILE,,64,554,3,NEUTRAL,0,3,NEUTRAL,64,554,0,1,FALSE,4,3,0,2,5,0,2,5,8,2,0,0,24
2,control_black,control,black,monitoring,1,17,0,TIMEOUT,,"","",,,,1581,1,UNKNOWN,,,,,,12,3,NEUTRAL,322,295,0,1,FALSE,1,3,,2,6,0,1,5,8,2,0,0,24
2,control_black,control,black,monitoring,1,18,1,CLICKED,864,"","",,,,1107,2,FRIEND,,340,222,6,ASSUMED_HOSTILE,2,6,ASSUMED_HOSTILE,340,222,0,1,FALSE,2,6,2,2,6,0,1,4,8,3,0,0,24
2,control_black,control,black,monitoring,1,19,1,CLICKED,875,"","",,,,548,6,ASSUMED_HOSTILE,,276,235,2,FRIEND,2,2,FRIEND,276,235,0,1,FALSE,6,2,2,2,6,0,1,5,8,2,0,0,24
2,control_black,control,black,monitoring,1,20,0,TIMEOUT,,"","",,,,578,6,ASSUMED_HOSTILE,,,,,,22,4,HOSTILE,257,689,0,1,FALSE,6,4,,3,6,0,1,5,8,1,0,0,24
2,control_black,control,black,monitoring,1,21,1,CLICKED,882,"","",,,,1062,5,ASSUMED_FRIEND,,516,364,6,ASSUMED_HOSTILE,1,6,ASSUMED_HOSTILE,516,364,0,1,FALSE,5,6,1,3,6,0,1,5,7,2,0,0,24
2,control_black,control,black,monitoring,1,22,1,CLICKED,639,"","",,,,1863,5,ASSUMED_FRIEND,,409,408,6,ASSUMED_HOSTILE,5,6,ASSUMED_HOSTILE,409,408,0,1,FALSE,5,6,5,3,6,0,1,5,6,3,0,0,24
2,control_black,control,black,monitoring,1,23,0,TIMEOUT,,"","",,,,1044,5,ASSUMED_FRIEND,,,,,,13,2,FRIEND,112,603,0,1,FALSE,5,2,,3,6,0,1,6,5,3,0,0,24
2,control_black,control,black,monitoring,1,24,0,TIMEOUT,,"","",,,,1979,5,ASSUMED_FRIEND,,,,,,14,1,UNKNOWN,411,718,0,1,FALSE,5,1,,3,6,0,2,6,4,3,0,0,24
2,control_black,control,black,monitoring,1,25,0,TIMEOUT,,"","",,,,1052,1,UNKNOWN,,,,,,14,3,NEUTRAL,606,419,0,1,FALSE,1,3,,3,7,0,1,6,4,3,0,0,24
2,control_black,control,black,monitoring,1,26,0,TIMEOUT,,"","",,,,665,5,ASSUMED_FRIEND,,,,,,15,2,FRIEND,364,514,0,1,FALSE,5,2,,3,7,0,1,7,3,3,0,0,24
2,control_black,control,black,monitoring,1,27,1,CLICKED,809,"","",,,,1120,6,ASSUMED_HOSTILE,,231,359,2,FRIEND,1,2,FRIEND,231,359,0,1,FALSE,6,2,1,3,7,0,1,8,3,2,0,0,24
2,control_black,control,black,monitoring,1,28,1,CLICKED,806,"","",,,,1626,6,ASSUMED_HOSTILE,,289,453,1,UNKNOWN,5,1,UNKNOWN,289,453,0,1,FALSE,6,1,5,3,7,0,2,8,3,1,0,0,24
2,control_black,control,black,monitoring,1,29,0,TIMEOUT,,"","",,,,1699,1,UNKNOWN,,,,,,5,2,FRIEND,180,555,0,1,FALSE,1,2,,3,7,0,1,9,3,1,0,0,24
2,control_black,control,black,monitoring,1,30,1,CLICKED,1082,"","",,,,1052,5,ASSUMED_FRIEND,,313,245,3,NEUTRAL,16,3,NEUTRAL,313,245,0,1,FALSE,5,3,16,3,8,0,1,9,2,1,0,0,24
2,control_black,control,black,monitoring,2,1,0,TIMEOUT,,"","",,,,1467,4,HOSTILE,,,,,,10,5,ASSUMED_FRIEND,222,485,0,1,FALSE,4,5,,1,2,0,6,2,7,6,0,0,24
2,control_black,control,black,monitoring,2,2,0,TIMEOUT,,"","",,,,1077,1,UNKNOWN,,,,,,0,5,ASSUMED_FRIEND,715,149,0,1,FALSE,1,5,,1,2,0,5,2,8,6,0,0,24
2,control_black,control,black,monitoring,2,3,1,CLICKED,1036,"","",,,,1194,1,UNKNOWN,,418,277,3,NEUTRAL,1,3,NEUTRAL,418,277,0,1,FALSE,1,3,1,1,3,0,4,2,8,6,0,0,24
2,control_black,control,black,monitoring,2,4,1,CLICKED,938,"","",,,,1320,5,ASSUMED_FRIEND,,619,215,4,HOSTILE,0,4,HOSTILE,619,215,0,1,FALSE,5,4,0,2,3,0,4,2,7,6,0,0,24
2,control_black,control,black,monitoring,2,5,1,CLICKED,788,"","",,,,1968,6,ASSUMED_HOSTILE,,321,422,2,FRIEND,18,2,FRIEND,321,422,0,1,FALSE,6,2,18,2,3,0,4,3,7,5,0,0,24
2,control_black,control,black,monitoring,2,6,1,CLICKED,895,"","",,,,1633,5,ASSUMED_FRIEND,,205,469,1,UNKNOWN,10,1,UNKNOWN,205,469,0,1,FALSE,5,1,10,2,3,0,5,3,6,5,0,0,24
2,control_black,control,black,monitoring,2,7,1,CLICKED,1010,"","",,,,836,1,UNKNOWN,,589,387,6,ASSUMED_HOSTILE,2,6,ASSUMED_HOSTILE,589,387,0,1,FALSE,1,6,2,2,3,0,4,3,6,6,0,0,24
2,control_black,control,black,monitoring,2,8,0,TIMEOUT,,"","",,,,1558,6,ASSUMED_HOSTILE,,,,,,2,4,HOSTILE,309,340,0,1,FALSE,6,4,,3,3,0,4,3,6,5,0,0,24
2,control_black,control,black,monitoring,2,9,1,CLICKED,987,"","",,,,1981,1,UNKNOWN,,218,257,5,ASSUMED_FRIEND,3,5,ASSUMED_FRIEND,218,257,0,1,FALSE,1,5,3,3,3,0,3,3,7,5,0,0,24
2,control_black,control,black,monitoring,2,10,1,CLICKED,962,"","",,,,1436,2,FRIEND,,443,259,1,UNKNOWN,6,1,UNKNOWN,443,259,0,1,FALSE,2,1,6,3,3,0,4,2,7,5,0,0,24
2,control_black,control,black,monitoring,2,11,1,CLICKED,983,"","",,,,1091,1,UNKNOWN,,607,142,6,ASSUMED_HOSTILE,4,6,ASSUMED_HOSTILE,607,142,0,1,FALSE,1,6,4,3,3,0,3,2,7,6,0,0,24
2,control_black,control,black,monitoring,2,12,0,TIMEOUT,,"","",,,,1514,3,NEUTRAL,,,,,,1,1,UNKNOWN,458,224,0,1,FALSE,3,1,,3,2,0,4,2,7,6,0,0,24
2,control_black,control,black,monitoring,2,13,0,TIMEOUT,,"","",,,,1673,6,ASSUMED_HOSTILE,,,,,,4,4,HOSTILE,198,7,0,1,FALSE,6,4,,4,2,0,4,2,7,5,0,0,24
2,control_black,control,black,monitoring,2,14,1,CLICKED,804,"","",,,,1610,5,ASSUMED_FRIEND,,317,322,6,ASSUMED_HOSTILE,3,6,ASSUMED_HOSTILE,317,322,0,1,FALSE,5,6,3,4,2,0,4,2,6,6,0,0,24
2,control_black,control,black,monitoring,2,15,1,CLICKED,914,"","",,,,1996,6,ASSUMED_HOSTILE,,351,416,3,NEUTRAL,3,3,NEUTRAL,351,416,0,1,FALSE,6,3,3,4,3,0,4,2,6,5,0,0,24
2,control_black,control,black,monitoring,2,16,1,CLICKED,797,"","",,,,1767,5,ASSUMED_FRIEND,,531,272,6,ASSUMED_HOSTILE,12,6,ASSUMED_HOSTILE,531,272,0,1,FALSE,5,6,12,4,3,0,4,2,5,6,0,0,24
2,control_black,control,black,monitoring,2,17,0,TIMEOUT,,"","",,,,1080,1,UNKNOWN,,,,,,1,3,NEUTRAL,495,279,0,1,FALSE,1,3,,4,4,0,3,2,5,6,0,0,24
2,control_black,control,black,monitoring,2,18,0,TIMEOUT,,"","",,,,1228,1,UNKNOWN,,,,,,5,2,FRIEND,224,608,0,1,FALSE,1,2,,4,4,0,2,3,5,6,0,0,24
2,control_black,control,black,monitoring,2,19,0,TIMEOUT,,"","",,,,826,6,ASSUMED_HOSTILE,,,,,,12,4,HOSTILE,535,382,0,1,FALSE,6,4,,5,4,0,2,3,5,5,0,0,24
2,control_black,control,black,monitoring,2,20,0,TIMEOUT,,"","",,,,1069,5,ASSUMED_FRIEND,,,,,,13,4,HOSTILE,126,338,0,1,FALSE,5,4,,6,4,0,2,3,4,5,0,0,24
2,control_black,control,black,monitoring,2,21,1,CLICKED,936,"","",,,,1504,6,ASSUMED_HOSTILE,,156,198,5,ASSUMED_FRIEND,19,5,ASSUMED_FRIEND,156,198,0,1,FALSE,6,5,19,6,4,0,2,3,5,4,0,0,24
2,control_black,control,black,monitoring,2,22,0,TIMEOUT,,"","",,,,730,5,ASSUMED_FRIEND,,,,,,14,2,FRIEND,241,488,0,1,FALSE,5,2,,6,4,0,2,4,4,4,0,0,24
2,control_black,control,black,monitoring,2,23,1,CLICKED,960,"","",,,,923,2,FRIEND,,354,581,4,HOSTILE,5,4,HOSTILE,354,581,0,1,FALSE,2,4,5,7,4,0,2,3,4,4,0,0,24
2,control_black,control,black,monitoring,2,24,1,CLICKED,839,"","",,,,1942,5,ASSUMED_FRIEND,,302,308,1,UNKNOWN,15,1,UNKNOWN,302,308,0,1,FALSE,5,1,15,7,4,0,3,3,3,4,0,0,24
2,control_black,control,black,monitoring,2,25,1,CLICKED,1133,"","",,,,842,6,ASSUMED_HOSTILE,,406,272,3,NEUTRAL,20,3,NEUTRAL,406,272,0,1,FALSE,6,3,20,7,5,0,3,3,3,3,0,0,24
2,control_black,control,black,monitoring,2,26,1,CLICKED,944,"","",,,,1260,5,ASSUMED_FRIEND,,660,620,4,HOSTILE,16,4,HOSTILE,660,620,0,1,FALSE,5,4,16,8,5,0,3,3,2,3,0,0,24
2,control_black,control,black,monitoring,2,27,0,TIMEOUT,,"","",,,,1075,6,ASSUMED_HOSTILE,,,,,,21,4,HOSTILE,312,239,0,1,FALSE,6,4,,9,5,0,3,3,2,2,0,0,24
2,control_black,control,black,monitoring,2,28,0,TIMEOUT,,"","",,,,723,1,UNKNOWN,,,,,,6,2,FRIEND,541,529,0,1,FALSE,1,2,,9,5,0,2,4,2,2,0,0,24
2,control_black,control,black,monitoring,2,29,1,CLICKED,1026,"","",,,,1129,5,ASSUMED_FRIEND,,507,145,3,NEUTRAL,17,3,NEUTRAL,507,145,0,1,FALSE,5,3,17,9,6,0,2,4,1,2,0,0,24
2,control_black,control,black,monitoring,2,30,1,CLICKED,985,"","",,,,1723,1,UNKNOWN,,241,337,4,HOSTILE,10,4,HOSTILE,241,337,0,1,FALSE,1,4,10,10,6,0,1,4,1,2,0,0,24
2,control_black,control,black,monitoring,3,1,1,CLICKED,1221,"","",,,,1486,1,UNKNOWN,,662,35,4,HOSTILE,0,4,HOSTILE,662,35,0,1,FALSE,1,4,0,3,2,0,5,2,6,6,0,0,24
2,control_black,control,black,monitoring,3,2,1,CLICKED,1092,"","",,,,757,3,NEUTRAL,,658,353,4,HOSTILE,8,4,HOSTILE,658,353,0,1,FALSE,3,4,8,4,1,0,5,2,6,6,0,0,24
2,control_black,control,black,monitoring,3,3,1,CLICKED,842,"","",,,,1438,1,UNKNOWN,,221,322,6,ASSUMED_HOSTILE,1,6,ASSUMED_HOSTILE,221,322,0,1,FALSE,1,6,1,4,1,0,4,2,6,7,0,0,24
2,control_black,control,black,monitoring,3,4,0,TIMEOUT,,"","",,,,640,6,ASSUMED_HOSTILE,,,,,,1,1,UNKNOWN,43,140,0,1,FALSE,6,1,,4,1,0,5,2,6,6,0,0,24
2,control_black,control,black,monitoring,3,5,1,CLICKED,899,"","",,,,981,5,ASSUMED_FRIEND,,606,500,4,HOSTILE,12,4,HOSTILE,606,500,0,1,FALSE,5,4,12,5,1,0,5,2,5,6,0,0,24
2,control_black,control,black,monitoring,3,6,1,CLICKED,4839,"","",,,,705,2,FRIEND,,527,641,3,NEUTRAL,6,3,NEUTRAL,527,641,0,1,FALSE,2,3,6,5,2,0,5,1,5,6,0,0,24
2,control_black,control,black,monitoring,3,7,1,CLICKED,901,"","",,,,1203,3,NEUTRAL,,425,582,6,ASSUMED_HOSTILE,6,6,ASSUMED_HOSTILE,425,582,0,1,FALSE,3,6,6,5,1,0,5,1,5,7,0,0,24
2,control_black,control,black,monitoring,3,8,1,CLICKED,991,"","",,,,925,6,ASSUMED_HOSTILE,,407,515,1,UNKNOWN,6,1,UNKNOWN,407,515,0,1,FALSE,6,1,6,5,1,0,6,1,5,6,0,0,24
2,control_black,control,black,monitoring,3,9,0,TIMEOUT,,"","",,,,1972,5,ASSUMED_FRIEND,,,,,,13,3,NEUTRAL,154,416,0,1,FALSE,5,3,,5,2,0,6,1,4,6,0,0,24
2,control_black,control,black,monitoring,3,10,1,CLICKED,983,"","",,,,1369,6,ASSUMED_HOSTILE,,316,323,5,ASSUMED_FRIEND,18,5,ASSUMED_FRIEND,316,323,0,1,FALSE,6,5,18,5,2,0,6,1,5,5,0,0,24
2,control_black,control,black,monitoring,3,11,0,TIMEOUT,,"","",,,,751,1,UNKNOWN,,,,,,1,5,ASSUMED_FRIEND,424,158,0,1,FALSE,1,5,,5,2,0,5,1,6,5,0,0,24
2,control_black,control,black,monitoring,3,12,1,CLICKED,1024,"","",,,,1389,5,ASSUMED_FRIEND,,399,141,6,ASSUMED_HOSTILE,1,6,ASSUMED_HOSTILE,399,141,0,1,FALSE,5,6,1,5,2,0,5,1,5,6,0,0,24
2,control_black,control,black,monitoring,3,13,1,CLICKED,827,"","",,,,1800,6,ASSUMED_HOSTILE,,387,183,3,NEUTRAL,1,3,NEUTRAL,387,183,0,1,FALSE,6,3,1,5,3,0,5,1,5,5,0,0,24
2,control_black,control,black,monitoring,3,14,1,CLICKED,1094,"","",,,,1432,1,UNKNOWN,,483,406,4,HOSTILE,2,4,HOSTILE,483,406,0,1,FALSE,1,4,2,6,3,0,4,1,5,5,0,0,24
2,control_black,control,black,monitoring,3,15,0,TIMEOUT,,"","",,,,781,5,ASSUMED_FRIEND,,,,,,14,2,FRIEND,551,644,0,1,FALSE,5,2,,6,3,0,4,2,4,5,0,0,24
2,control_black,control,black,monitoring,3,16,0,TIMEOUT,,"","",,,,561,5,ASSUMED_FRIEND,,,,,,15,2,FRIEND,579,577,0,1,FALSE,5,2,,6,3,0,4,3,3,5,0,0,24
2,control_black,control,black,monitoring,3,17,1,CLICKED,1098,"","",,,,1249,5,ASSUMED_FRIEND,,130,655,3,NEUTRAL,16,3,NEUTRAL,130,655,0,1,FALSE,5,3,16,6,4,0,4,3,2,5,0,0,24
2,control_black,control,black,monitoring,3,18,1,CLICKED,924,"","",,,,1028,6,ASSUMED_HOSTILE,,658,532,5,ASSUMED_FRIEND,19,5,ASSUMED_FRIEND,658,532,0,1,FALSE,6,5,19,6,4,0,4,3,3,4,0,0,24
2,control_black,control,black,monitoring,3,19,0,TIMEOUT,,"","",,,,1494,1,UNKNOWN,,,,,,3,4,HOSTILE,610,251,0,1,FALSE,1,4,,7,4,0,3,3,3,4,0,0,24
2,control_black,control,black,monitoring,3,20,0,TIMEOUT,,"","",,,,1167,5,ASSUMED_FRIEND,,,,,,17,4,HOSTILE,353,389,0,1,FALSE,5,4,,8,4,0,3,3,2,4,0,0,24
2,control_black,control,black,monitoring,3,21,0,TIMEOUT,,"","",,,,1752,1,UNKNOWN,,,,,,4,2,FRIEND,299,262,0,1,FALSE,1,2,,8,4,0,2,4,2,4,0,0,24
2,control_black,control,black,monitoring,3,22,1,CLICKED,709,"","",,,,1878,4,HOSTILE,,417,504,2,FRIEND,0,2,FRIEND,417,504,0,1,FALSE,4,2,0,7,4,0,2,5,2,4,0,0,24
2,control_black,control,black,monitoring,3,23,0,TIMEOUT,,"","",,,,1129,5,ASSUMED_FRIEND,,,,,,18,1,UNKNOWN,273,236,0,1,FALSE,5,1,,7,4,0,3,5,1,4,0,0,24
2,control_black,control,black,monitoring,3,24,1,CLICKED,897,"","",,,,1797,3,NEUTRAL,,457,221,5,ASSUMED_FRIEND,1,5,ASSUMED_FRIEND,457,221,0,1,FALSE,3,5,1,7,3,0,3,5,2,4,0,0,24
2,control_black,control,black,monitoring,3,25,0,TIMEOUT,,"","",,,,1614,6,ASSUMED_HOSTILE,,,,,,20,1,UNKNOWN,192,514,0,1,FALSE,6,1,,7,3,0,4,5,2,3,0,0,24
2,control_black,control,black,monitoring,3,26,0,TIMEOUT,,"","",,,,1421,4,HOSTILE,,,,,,2,6,ASSUMED_HOSTILE,354,594,0,1,FALSE,4,6,,6,3,0,4,5,2,4,0,0,24
2,control_black,control,black,monitoring,3,27,1,CLICKED,1024,"","",,,,1600,6,ASSUMED_HOSTILE,,400,547,5,ASSUMED_FRIEND,2,5,ASSUMED_FRIEND,400,547,0,1,FALSE,6,5,2,6,3,0,4,5,3,3,0,0,24
2,control_black,control,black,monitoring,3,28,1,CLICKED,1011,"","",,,,1227,4,HOSTILE,,558,394,1,UNKNOWN,3,1,UNKNOWN,558,394,0,1,FALSE,4,1,3,5,3,0,5,5,3,3,0,0,24
2,control_black,control,black,monitoring,3,29,1,CLICKED,726,"","",,,,1952,1,UNKNOWN,,592,401,6,ASSUMED_HOSTILE,3,6,ASSUMED_HOSTILE,592,401,0,1,FALSE,1,6,3,5,3,0,4,5,3,4,0,0,24
2,control_black,control,black,monitoring,3,30,1,CLICKED,988,"","",,,,1672,6,ASSUMED_HOSTILE,,668,411,3,NEUTRAL,3,3,NEUTRAL,668,411,0,1,FALSE,6,3,3,5,4,0,4,5,3,3,0,0,24
3,control_black,control,black,categoryLearning,,1,0,CLICKED,4614,HOSTILE,FRIEND,4,2,1,,,"",,,,,"",,,"",,,,,,,,,,,,,,,,,,
3,control_black,control,black,categoryLearning,,2,1,CLICKED,1259,FRIEND,FRIEND,2,2,1,,,"",,,,,"",,,"",,,,,,,,,,,,,,,,,,
3,control_black,control,black,categoryLearning,,3,0,CLICKED,1698,UNKNOWN,NEUTRAL,1,3,1,,,"",,,,,"",,,"",,,,,,,,,,,,,,,,,,
3,control_black,control,black,categoryLearning,,4,1,CLICKED,1412,NEUTRAL,NEUTRAL,3,3,1,,,"",,,,,"",,,"",,,,,,,,,,,,,,,,,,
3,control_black,control,black,categoryLearning,,5,1,CLICKED,1231,HOSTILE,HOSTILE,4,4,1,,,"",,,,,"",,,"",,,,,,,,,,,,,,,,,,
3,control_black,control,black,categoryLearning,,6,1,CLICKED,1344,FRIEND,FRIEND,2,2,1,,,"",,,,,"",,,"",,,,,,,,,,,,,,,,,,
3,control_black,control,black,categoryLearning,,7,1,CLICKED,1489,UNKNOWN,UNKNOWN,1,1,1,,,"",,,,,"",,,"",,,,,,,,,,,,,,,,,,
3,control_black,control,black,categoryLearning,,8,1,CLICKED,1756,NEUTRAL,NEUTRAL,3,3,1,,,"",,,,,"",,,"",,,,,,,,,,,,,,,,,,
3,control_black,control,black,categoryLearning,,9,1,CLICKED,782,NEUTRAL,NEUTRAL,3,3,1,,,"",,,,,"",,,"",,,,,,,,,,,,,,,,,,
3,control_black,control,black,categoryLearning,,10,1,CLICKED,925,UNKNOWN,UNKNOWN,1,1,1,,,"",,,,,"",,,"",,,,,,,,,,,,,,,,,,
3,control_black,control,black,practiceMonitoring,,1,0,CLICKED,1850,"","",,,,1675,4,HOSTILE,3,322,305,2,FRIEND,0,3,NEUTRAL,201,96,,,,,,,,,,,,,,,,
3,control_black,control,black,practiceMonitoring,,2,0,CLICKED,551,"","",,,,727,3,NEUTRAL,3,370,347,2,FRIEND,1,1,UNKNOWN,719,406,,,,,,,,,,,,,,,,
3,control_black,control,black,practiceMonitoring,,3,0,CLICKED,1361,"","",,,,1349,1,UNKNOWN,3,605,428,2,FRIEND,2,2,FRIEND,436,302,,,,,,,,,,,,,,,,
3,control_black,control,black,monitoring,1,1,0,CLICKED,3078,"","",,,,901,1,UNKNOWN,,221,407,1,UNKNOWN,0,4,HOSTILE,360,723,0,1,FALSE,1,4,2,3,2,0,5,2,6,6,0,0,24
3,control_black,control,black,monitoring,1,2,0,CLICKED,1298,"","",,,,1340,6,ASSUMED_HOSTILE,,289,301,5,ASSUMED_FRIEND,18,5,ASSUMED_FRIEND,378,529,0,1,FALSE,6,5,14,3,2,0,5,2,7,5,0,0,24
3,control_black,control,black,monitoring,1,3,0,CLICKED,2120,"","",,,,1351,5,ASSUMED_FRIEND,,195,491,3,NEUTRAL,12,1,UNKNOWN,320,419,0,1,FALSE,5,1,8,3,2,0,6,2,6,5,0,0,24
3,control_black,control,black,monitoring,1,4,0,CLICKED,834,"","",,,,1932,1,UNKNOWN,,272,542,4,HOSTILE,1,2,FRIEND,113,755,0,1,FALSE,1,2,0,3,2,0,5,3,6,5,0,0,24
3,control_black,control,black,monitoring,1,5,0,CLICKED,477,"","",,,,634,6,ASSUMED_HOSTILE,,375,418,1,UNKNOWN,19,2,FRIEND,520,567,0,1,FALSE,6,2,2,3,2,0,5,4,6,4,0,0,24
3,control_black,control,black,monitoring,1,6,0,CLICKED,1285,"","",,,,856,6,ASSUMED_HOSTILE,,375,355,2,FRIEND,20,1,UNKNOWN,527,558,0,1,FALSE,6,1,6,3,2,0,6,4,6,3,0,0,24
3,control_black,control,black,monitoring,1,7,0,CLICKED,270,"","",,,,857,1,UNKNOWN,,343,618,1,UNKNOWN,2,5,ASSUMED_FRIEND,342,442,0,1,FALSE,1,5,5,3,2,0,5,4,7,3,0,0,24
3,control_black,control,black,monitoring,1,8,0,CLICKED,439,"","",,,,1016,1,UNKNOWN,,152,296,3,NEUTRAL,3,6,ASSUMED_HOSTILE,399,167,0,1,FALSE,1,6,8,3,2,0,4,4,7,4,0,0,24
3,control_black,control,black,monitoring,1,9,0,CLICKED,369,"","",,,,693,6,ASSUMED_HOSTILE,,297,203,5,ASSUMED_FRIEND,3,3,NEUTRAL,508,143,0,1,FALSE,6,3,13,3,3,0,4,4,7,3,0,0,24
3,control_black,control,black,monitoring,1,10,0,CLICKED,388,"","",,,,1706,5,ASSUMED_FRIEND,,479,247,5,ASSUMED_FRIEND,2,3,NEUTRAL,329,449,0,1,FALSE,5,3,15,3,4,0,4,4,6,3,0,0,24
3,control_black,control,black,monitoring,1,11,0,CLICKED,154,"","",,,,1525,2,FRIEND,,302,511,4,HOSTILE,1,5,ASSUMED_FRIEND,175,619,0,1,FALSE,2,5,0,3,4,0,4,3,7,3,0,0,24
3,control_black,control,black,monitoring,1,12,0,CLICKED,417,"","",,,,629,1,UNKNOWN,,233,205,3,NEUTRAL,4,3,NEUTRAL,605,431,0,1,FALSE,1,3,8,3,5,0,3,3,7,3,0,0,24
3,control_black,control,black,monitoring,1,13,0,CLICKED,386,"","",,,,1940,3,NEUTRAL,,266,503,6,ASSUMED_HOSTILE,2,2,FRIEND,567,604,0,1,FALSE,3,2,22,3,4,0,3,4,7,3,0,0,24
3,control_black,control,black,monitoring,1,14,0,CLICKED,243,"","",,,,852,1,UNKNOWN,,244,535,5,ASSUMED_FRIEND,5,5,ASSUMED_FRIEND,421,528,0,1,FALSE,1,5,1,3,4,0,2,4,8,3,0,0,24
3,control_black,control,black,monitoring,1,15,0,CLICKED,678,"","",,,,1608,6,ASSUMED_HOSTILE,,541,459,5,ASSUMED_FRIEND,21,2,FRIEND,389,284,0,1,FALSE,6,2,16,3,4,0,2,5,8,2,0,0,24
3,control_black,control,black,monitoring,1,16,0,CLICKED,347,"","",,,,1660,4,HOSTILE,,451,382,6,ASSUMED_HOSTILE,0,3,NEUTRAL,234,450,0,1,FALSE,4,3,23,2,5,0,2,5,8,2,0,0,24
3,control_black,control,black,monitoring,1,17,0,CLICKED,330,"","",,,,612,1,UNKNOWN,,436,315,5,ASSUMED_FRIEND,12,3,NEUTRAL,589,654,0,1,FALSE,1,3,13,2,6,0,1,5,8,2,0,0,24
3,control_black,control,black,monitoring,1,18,0,CLICKED,620,"","",,,,1410,2,FRIEND,,255,266,5,ASSUMED_FRIEND,2,6,ASSUMED_HOSTILE,534,622,0,1,FALSE,2,6,17,2,6,0,1,4,8,3,0,0,24
3,control_black,control,black,monitoring,1,19,0,CLICKED,91,"","",,,,1610,6,ASSUMED_HOSTILE,,226,512,4,HOSTILE,2,2,FRIEND,667,618,0,1,FALSE,6,2,11,2,6,0,1,5,8,2,0,0,24
3,control_black,control,black,monitoring,1,20,0,CLICKED,201,"","",,,,1582,6,ASSUMED_HOSTILE,,494,509,3,NEUTRAL,22,4,HOSTILE,336,525,0,1,FALSE,6,4,4,3,6,0,1,5,8,1,0,0,24
3,control_black,control,black,monitoring,1,21,0,TIMEOUT,,"","",,,,1555,5,ASSUMED_FRIEND,,,,,,1,6,ASSUMED_HOSTILE,294,514,0,1,FALSE,5,6,,3,6,0,1,5,7,2,0,0,24
3,control_black,control,black,monitoring,1,22,0,TIMEOUT,,"","",,,,1471,5,ASSUMED_FRIEND,,,,,,5,6,ASSUMED_HOSTILE,460,497,0,1,FALSE,5,6,,3,6,0,1,5,6,3,0,0,24
3,control_black,control,black,monitoring,1,23,0,CLICKED,960,"","",,,,912,5,ASSUMED_FRIEND,,232,357,4,HOSTILE,13,2,FRIEND,114,596,0,1,FALSE,5,2,11,3,6,0,1,6,5,3,0,0,24
3,control_black,control,black,monitoring,1,24,0,CLICKED,1050,"","",,,,1836,5,ASSUMED_FRIEND,,269,404,5,ASSUMED_FRIEND,14,1,UNKNOWN,687,82,0,1,FALSE,5,1,18,3,6,0,2,6,4,3,0,0,24
3,control_black,control,black,monitoring,1,25,0,CLICKED,658,"","",,,,1804,1,UNKNOWN,,600,382,3,NEUTRAL,14,3,NEUTRAL,686,302,0,1,FALSE,1,3,12,3,7,0,1,6,4,3,0,0,24
3,control_black,control,black,monitoring,1,26,0,CLICKED,1919,"","",,,,832,5,ASSUMED_FRIEND,,8,140,5,ASSUMED_FRIEND,15,2,FRIEND,722,112,0,1,FALSE,5,2,17,3,7,0,1,7,3,3,0,0,24
3,control_black,control,black,monitoring,1,27,0,CLICKED,1115,"","",,,,667,6,ASSUMED_HOSTILE,,684,506,4,HOSTILE,1,2,FRIEND,390,582,0,1,FALSE,6,2,10,3,7,0,1,8,3,2,0,0,24
3,control_black,control,black,monitoring,1,28,0,CLICKED,1305,"","",,,,1357,6,ASSUMED_HOSTILE,,417,410,3,NEUTRAL,5,1,UNKNOWN,166,123,0,1,FALSE,6,1,8,3,7,0,2,8,3,1,0,0,24
3,control_black,control,black,monitoring,1,29,0,CLICKED,595,"","",,,,1404,1,UNKNOWN,,36,745,3,NEUTRAL,5,2,FRIEND,92,138,0,1,FALSE,1,2,9,3,7,0,1,9,3,1,0,0,24
3,control_black,control,black,monitoring,1,30,0,CLICKED,1221,"","",,,,1369,5,ASSUMED_FRIEND,,376,347,6,ASSUMED_HOSTILE,16,3,NEUTRAL,313,284,0,1,FALSE,5,3,23,3,8,0,1,9,2,1,0,0,24
3,control_black,control,black,monitoring,2,1,1,CLICKED,1081,"","",,,,1901,4,HOSTILE,,303,409,5,ASSUMED_FRIEND,10,5,ASSUMED_FRIEND,303,409,0,1,FALSE,4,5,10,1,2,0,6,2,7,6,0,0,24
3,control_black,control,black,monitoring,2,2,1,CLICKED,1138,"","",,,,1405,1,UNKNOWN,,358,381,5,ASSUMED_FRIEND,0,5,ASSUMED_FRIEND,358,381,0,1,FALSE,1,5,0,1,2,0,5,2,8,6,0,0,24
3,control_black,control,black,monitoring,2,3,1,CLICKED,1121,"","",,,,902,1,UNKNOWN,,472,486,3,NEUTRAL,1,3,NEUTRAL,472,486,0,1,FALSE,1,3,1,1,3,0,4,2,8,6,0,0,24
3,control_black,control,black,monitoring,2,4,1,CLICKED,1140,"","",,,,1939,5,ASSUMED_FRIEND,,138,316,4,HOSTILE,0,4,HOSTILE,138,316,0,1,FALSE,5,4,0,2,3,0,4,2,7,6,0,0,24
3,control_black,control,black,monitoring,2,5,1,CLICKED,1113,"","",,,,1958,6,ASSUMED_HOSTILE,,376,186,2,FRIEND,18,2,FRIEND,376,186,0,1,FALSE,6,2,18,2,3,0,4,3,7,5,0,0,24
3,control_black,control,black,monitoring,2,6,0,TIMEOUT,,"","",,,,1137,5,ASSUMED_FRIEND,,,,,,10,1,UNKNOWN,118,613,0,1,FALSE,5,1,,2,3,0,5,3,6,5,0,0,24
3,control_black,control,black,monitoring,2,7,1,CLICKED,995,"","",,,,1990,1,UNKNOWN,,303,518,6,ASSUMED_HOSTILE,2,6,ASSUMED_HOSTILE,303,518,0,1,FALSE,1,6,2,2,3,0,4,3,6,6,0,0,24
3,control_black,control,black,monitoring,2,8,0,CLICKED,3299,"","",,,,1275,6,ASSUMED_HOSTILE,,35,135,3,NEUTRAL,2,4,HOSTILE,381,497,0,1,FALSE,6,4,8,3,3,0,4,3,6,5,0,0,24
3,control_black,control,black,monitoring,2,9,0,TIMEOUT,,"","",,,,1789,1,UNKNOWN,,,,,,3,5,ASSUMED_FRIEND,741,326,0,1,FALSE,1,5,,3,3,0,3,3,7,5,0,0,24
3,control_black,control,black,monitoring,2,10,1,CLICKED,965,"","",,,,1426,2,FRIEND,,321,599,1,UNKNOWN,6,1,UNKNOWN,321,599,0,1,FALSE,2,1,6,3,3,0,4,2,7,5,0,0,24
3,control_black,control,black,monitoring,2,11,1,CLICKED,2832,"","",,,,1047,1,UNKNOWN,,215,432,6,ASSUMED_HOSTILE,4,6,ASSUMED_HOSTILE,215,432,0,1,FALSE,1,6,4,3,3,0,3,2,7,6,0,0,24
3,control_black,control,black,monitoring,2,12,1,CLICKED,4400,"","",,,,783,3,NEUTRAL,,180,410,1,UNKNOWN,1,1,UNKNOWN,180,410,0,1,FALSE,3,1,1,3,2,0,4,2,7,6,0,0,24
3,control_black,control,black,monitoring,2,13,0,TIMEOUT,,"","",,,,1954,6,ASSUMED_HOSTILE,,,,,,4,4,HOSTILE,349,510,0,1,FALSE,6,4,,4,2,0,4,2,7,5,0,0,24
3,control_black,control,black,monitoring,2,14,1,CLICKED,1376,"","",,,,899,5,ASSUMED_FRIEND,,571,288,6,ASSUMED_HOSTILE,3,6,ASSUMED_HOSTILE,571,288,0,1,FALSE,5,6,3,4,2,0,4,2,6,6,0,0,24
3,control_black,control,black,monitoring,2,15,1,CLICKED,1386,"","",,,,524,6,ASSUMED_HOSTILE,,458,283,3,NEUTRAL,3,3,NEUTRAL,458,283,0,1,FALSE,6,3,3,4,3,0,4,2,6,5,0,0,24
3,control_black,control,black,monitoring,2,16,1,CLICKED,1097,"","",,,,1326,5,ASSUMED_FRIEND,,577,187,6,ASSUMED_HOSTILE,12,6,ASSUMED_HOSTILE,577,187,0,1,FALSE,5,6,12,4,3,0,4,2,5,6,0,0,24
3,control_black,control,black,monitoring,2,17,0,CLICKED,222,"","",,,,1912,1,UNKNOWN,,438,393,5,ASSUMED_FRIEND,1,3,NEUTRAL,171,529,0,1,FALSE,1,3,16,4,4,0,3,2,5,6,0,0,24
3,control_black,control,black,monitoring,2,18,1,CLICKED,835,"","",,,,1517,1,UNKNOWN,,424,378,2,FRIEND,5,2,FRIEND,424,378,0,1,FALSE,1,2,5,4,4,0,2,3,5,6,0,0,24
3,control_black,control,black,monitoring,2,19,0,TIMEOUT,,"","",,,,650,6,ASSUMED_HOSTILE,,,,,,12,4,HOSTILE,492,291,0,1,FALSE,6,4,,5,4,0,2,3,5,5,0,0,24
3,control_black,control,black,monitoring,2,20,1,CLICKED,1324,"","",,,,1358,5,ASSUMED_FRIEND,,192,222,4,HOSTILE,13,4,HOSTILE,192,222,0,1,FALSE,5,4,13,6,4,0,2,3,4,5,0,0,24
3,control_black,control,black,monitoring,2,21,1,CLICKED,1069,"","",,,,1073,6,ASSUMED_HOSTILE,,511,438,5,ASSUMED_FRIEND,19,5,ASSUMED_FRIEND,511,438,0,1,FALSE,6,5,19,6,4,0,2,3,5,4,0,0,24
3,control_black,control,black,monitoring,2,22,0,TIMEOUT,,"","",,,,1911,5,ASSUMED_FRIEND,,,,,,14,2,FRIEND,319,496,0,1,FALSE,5,2,,6,4,0,2,4,4,4,0,0,24
3,control_black,control,black,monitoring,2,23,1,CLICKED,1052,"","",,,,1964,2,FRIEND,,652,676,4,HOSTILE,5,4,HOSTILE,652,676,0,1,FALSE,2,4,5,7,4,0,2,3,4,4,0,0,24
3,control_black,control,black,monitoring,2,24,1,CLICKED,1591,"","",,,,933,5,ASSUMED_FRIEND,,361,587,1,UNKNOWN,15,1,UNKNOWN,361,587,0,1,FALSE,5,1,15,7,4,0,3,3,3,4,0,0,24
3,control_black,control,black,monitoring,2,25,0,CLICKED,2993,"","",,,,1517,6,ASSUMED_HOSTILE,,473,617,2,FRIEND,20,3,NEUTRAL,579,208,0,1,FALSE,6,3,18,7,5,0,3,3,3,3,0,0,24
3,control_black,control,black,monitoring,2,26,1,CLICKED,1666,"","",,,,1500,5,ASSUMED_FRIEND,,354,466,4,HOSTILE,16,4,HOSTILE,354,466,0,1,FALSE,5,4,16,8,5,0,3,3,2,3,0,0,24
3,control_black,control,black,monitoring,2,27,0,TIMEOUT,,"","",,,,597,6,ASSUMED_HOSTILE,,,,,,21,4,HOSTILE,158,337,0,1,FALSE,6,4,,9,5,0,3,3,2,2,0,0,24
3,control_black,control,black,monitoring,2,28,0,CLICKED,1456,"","",,,,1983,1,UNKNOWN,,528,521,2,FRIEND,6,2,FRIEND,339,513,0,1,FALSE,1,2,7,9,5,0,2,4,2,2,0,0,24
3,control_black,control,black,monitoring,2,29,0,CLICKED,4911,"","",,,,719,5,ASSUMED_FRIEND,,416,337,5,ASSUMED_FRIEND,17,3,NEUTRAL,503,355,0,1,FALSE,5,3,19,9,6,0,2,4,1,2,0,0,24
3,control_black,control,black,monitoring,2,30,1,CLICKED,1789,"","",,,,1018,1,UNKNOWN,,211,405,4,HOSTILE,10,4,HOSTILE,211,405,0,1,FALSE,1,4,10,10,6,0,1,4,1,2,0,0,24
3,control_black,control,black,monitoring,3,1,0,TIMEOUT,,"","",,,,1276,1,UNKNOWN,,,,,,0,4,HOSTILE,546,493,0,1,FALSE,1,4,,3,2,0,5,2,6,6,0,0,24
3,control_black,control,black,monitoring,3,2,0,TIMEOUT,,"","",,,,1187,3,NEUTRAL,,,,,,8,4,HOSTILE,214,28,0,1,FALSE,3,4,,4,1,0,5,2,6,6,0,0,24
3,control_black,control,black,monitoring,3,3,0,TIMEOUT,,"","",,,,784,1,UNKNOWN,,,,,,1,6,ASSUMED_HOSTILE,412,475,0,1,FALSE,1,6,,4,1,0,4,2,6,7,0,0,24
3,control_black,control,black,monitoring,3,4,0,TIMEOUT,,"","",,,,694,6,ASSUMED_HOSTILE,,,,,,1,1,UNKNOWN,346,521,0,1,FALSE,6,1,,4,1,0,5,2,6,6,0,0,24
3,control_black,control,black,monitoring,3,5,1,CLICKED,1703,"","",,,,1045,5,ASSUMED_FRIEND,,376,609,4,HOSTILE,12,4,HOSTILE,376,609,0,1,FALSE,5,4,12,5,1,0,5,2,5,6,0,0,24
3,control_black,control,black,monitoring,3,6,1,CLICKED,927,"","",,,,1095,2,FRIEND,,365,496,3,NEUTRAL,6,3,NEUTRAL,365,496,0,1,FALSE,2,3,6,5,2,0,5,1,5,6,0,0,24
3,control_black,control,black,monitoring,3,7,1,CLICKED,1199,"","",,,,1623,3,NEUTRAL,,296,499,6,ASSUMED_HOSTILE,6,6,ASSUMED_HOSTILE,296,499,0,1,FALSE,3,6,6,5,1,0,5,1,5,7,0,0,24
3,control_black,control,black,monitoring,3,8,1,CLICKED,1785,"","",,,,655,6,ASSUMED_HOSTILE,,372,533,1,UNKNOWN,6,1,UNKNOWN,372,533,0,1,FALSE,6,1,6,5,1,0,6,1,5,6,0,0,24
3,control_black,control,black,monitoring,3,9,1,CLICKED,1021,"","",,,,1136,5,ASSUMED_FRIEND,,183,522,3,NEUTRAL,13,3,NEUTRAL,183,522,0,1,FALSE,5,3,13,5,2,0,6,1,4,6,0,0,24
3,control_black,control,black,monitoring,3,10,1,CLICKED,930,"","",,,,1213,6,ASSUMED_HOSTILE,,300,481,5,ASSUMED_FRIEND,18,5,ASSUMED_FRIEND,300,481,0,1,FALSE,6,5,18,5,2,0,6,1,5,5,0,0,24
3,control_black,control,black,monitoring,3,11,0,CLICKED,1555,"","",,,,507,1,UNKNOWN,,448,531,2,FRIEND,1,5,ASSUMED_FRIEND,435,619,0,1,FALSE,1,5,7,5,2,0,5,1,6,5,0,0,24
3,control_black,control,black,monitoring,3,12,1,CLICKED,1061,"","",,,,578,5,ASSUMED_FRIEND,,450,619,6,ASSUMED_HOSTILE,1,6,ASSUMED_HOSTILE,450,619,0,1,FALSE,5,6,1,5,2,0,5,1,5,6,0,0,24
3,control_black,control,black,monitoring,3,13,0,TIMEOUT,,"","",,,,1579,6,ASSUMED_HOSTILE,,,,,,1,3,NEUTRAL,524,661,0,1,FALSE,6,3,,5,3,0,5,1,5,5,0,0,24
3,control_black,control,black,monitoring,3,14,0,TIMEOUT,,"","",,,,1225,1,UNKNOWN,,,,,,2,4,HOSTILE,659,89,0,1,FALSE,1,4,,6,3,0,4,1,5,5,0,0,24
3,control_black,control,black,monitoring,3,15,0,CLICKED,2034,"","",,,,713,5,ASSUMED_FRIEND,,710,708,3,NEUTRAL,14,2,FRIEND,186,130,0,1,FALSE,5,2,13,6,3,0,4,2,4,5,0,0,24
3,control_black,control,black,monitoring,3,16,0,TIMEOUT,,"","",,,,1848,5,ASSUMED_FRIEND,,,,,,15,2,FRIEND,613,67,0,1,FALSE,5,2,,6,3,0,4,3,3,5,0,0,24
3,control_black,control,black,monitoring,3,17,1,CLICKED,1232,"","",,,,1175,5,ASSUMED_FRIEND,,264,344,3,NEUTRAL,16,3,NEUTRAL,264,344,0,1,FALSE,5,3,16,6,4,0,4,3,2,5,0,0,24
3,control_black,control,black,monitoring,3,18,1,CLICKED,1296,"","",,,,783,6,ASSUMED_HOSTILE,,389,473,5,ASSUMED_FRIEND,19,5,ASSUMED_FRIEND,389,473,0,1,FALSE,6,5,19,6,4,0,4,3,3,4,0,0,24
3,control_black,control,black,monitoring,3,19,0,TIMEOUT,,"","",,,,1688,1,UNKNOWN,,,,,,3,4,HOSTILE,433,206,0,1,FALSE,1,4,,7,4,0,3,3,3,4,0,0,24
3,control_black,control,black,monitoring,3,20,1,CLICKED,1971,"","",,,,1748,5,ASSUMED_FRIEND,,343,472,4,HOSTILE,17,4,HOSTILE,343,472,0,1,FALSE,5,4,17,8,4,0,3,3,2,4,0,0,24
3,control_black,control,black,monitoring,3,21,1,CLICKED,1076,"","",,,,1857,1,UNKNOWN,,92,420,2,FRIEND,4,2,FRIEND,92,420,0,1,FALSE,1,2,4,8,4,0,2,4,2,4,0,0,24
3,control_black,control,black,monitoring,3,22,1,CLICKED,1149,"","",,,,1217,4,HOSTILE,,352,341,2,FRIEND,0,2,FRIEND,352,341,0,1,FALSE,4,2,0,7,4,0,2,5,2,4,0,0,24
3,control_black,control,black,monitoring,3,23,1,CLICKED,1059,"","",,,,1346,5,ASSUMED_FRIEND,,126,371,1,UNKNOWN,18,1,UNKNOWN,126,371,0,1,FALSE,5,1,18,7,4,0,3,5,1,4,0,0,24
3,control_black,control,black,monitoring,3,24,1,CLICKED,956,"","",,,,507,3,NEUTRAL,,345,608,5,ASSUMED_FRIEND,1,5,ASSUMED_FRIEND,345,608,0,1,FALSE,3,5,1,7,3,0,3,5,2,4,0,0,24
3,control_black,control,black,monitoring,3,25,0,TIMEOUT,,"","",,,,987,6,ASSUMED_HOSTILE,,,,,,20,1,UNKNOWN,346,307,0,1,FALSE,6,1,,7,3,0,4,5,2,3,0,0,24
3,control_black,control,black,monitoring,3,26,0,TIMEOUT,,"","",,,,713,4,HOSTILE,,,,,,2,6,ASSUMED_HOSTILE,377,396,0,1,FALSE,4,6,,6,3,0,4,5,2,4,0,0,24
3,control_black,control,black,monitoring,3,27,1,CLICKED,1311,"","",,,,1735,6,ASSUMED_HOSTILE,,468,407,5,ASSUMED_FRIEND,2,5,ASSUMED_FRIEND,468,407,0,1,FALSE,6,5,2,6,3,0,4,5,3,3,0,0,24
3,control_black,control,black,monitoring,3,28,0,TIMEOUT,,"","",,,,783,4,HOSTILE,,,,,,3,1,UNKNOWN,678,161,0,1,FALSE,4,1,,5,3,0,5,5,3,3,0,0,24
3,control_black,control,black,monitoring,3,29,0,TIMEOUT,,"","",,,,990,1,UNKNOWN,,,,,,3,6,ASSUMED_HOSTILE,478,200,0,1,FALSE,1,6,,5,3,0,4,5,3,4,0,0,24
3,control_black,control,black,monitoring,3,30,1,CLICKED,1222,"","",,,,1876,6,ASSUMED_HOSTILE,,506,255,3,NEUTRAL,3,3,NEUTRAL,506,255,0,1,FALSE,6,3,3,5,4,0,4,5,3,3,0,0,24
4,control_black,control,black,categoryLearning,,1,0,TIMEOUT,,NEUTRAL,,3,,1,,,"",,,,,"",,,"",,,,,,,,,,,,,,,,,,
4,control_black,control,black,categoryLearning,,2,0,CLICKED,1542,FRIEND,NEUTRAL,2,3,1,,,"",,,,,"",,,"",,,,,,,,,,,,,,,,,,
4,control_black,control,black,categoryLearning,,3,1,CLICKED,1200,HOSTILE,HOSTILE,4,4,1,,,"",,,,,"",,,"",,,,,,,,,,,,,,,,,,
4,control_black,control,black,categoryLearning,,4,1,CLICKED,1337,UNKNOWN,UNKNOWN,1,1,1,,,"",,,,,"",,,"",,,,,,,,,,,,,,,,,,
4,control_black,control,black,categoryLearning,,5,1,CLICKED,1046,HOSTILE,HOSTILE,4,4,1,,,"",,,,,"",,,"",,,,,,,,,,,,,,,,,,
4,control_black,control,black,categoryLearning,,6,0,CLICKED,1243,UNKNOWN,NEUTRAL,1,3,1,,,"",,,,,"",,,"",,,,,,,,,,,,,,,,,,
4,control_black,control,black,categoryLearning,,7,1,CLICKED,1122,FRIEND,FRIEND,2,2,1,,,"",,,,,"",,,"",,,,,,,,,,,,,,,,,,
4,control_black,control,black,categoryLearning,,8,1,CLICKED,752,NEUTRAL,NEUTRAL,3,3,1,,,"",,,,,"",,,"",,,,,,,,,,,,,,,,,,
4,control_black,control,black,categoryLearning,,9,0,CLICKED,1532,NEUTRAL,FRIEND,3,2,1,,,"",,,,,"",,,"",,,,,,,,,,,,,,,,,,
4,control_black,control,black,categoryLearning,,10,1,CLICKED,1350,HOSTILE,HOSTILE,4,4,1,,,"",,,,,"",,,"",,,,,,,,,,,,,,,,,,
4,control_black,control,black,categoryLearning,,11,1,CLICKED,2160,FRIEND,FRIEND,2,2,1,,,"",,,,,"",,,"",,,,,,,,,,,,,,,,,,
4,control_black,control,black,categoryLearning,,12,1,CLICKED,1175,UNKNOWN,UNKNOWN,1,1,1,,,"",,,,,"",,,"",,,,,,,,,,,,,,,,,,
4,control_black,control,black,practiceMonitoring,,1,0,CLICKED,1666,"","",,,,994,4,HOSTILE,3,317,410,2,FRIEND,0,3,NEUTRAL,180,210,,,,,,,,,,,,,,,,
4,control_black,control,black,practiceMonitoring,,2,1,CLICKED,877,"","",,,,1936,3,NEUTRAL,1,292,516,1,UNKNOWN,1,1,UNKNOWN,292,516,,,,,,,,,,,,,,,,
4,control_black,control,black,practiceMonitoring,,3,0,CLICKED,210,"","",,,,1497,1,UNKNOWN,4,576,142,4,HOSTILE,2,2,FRIEND,186,364,,,,,,,,,,,,,,,,
4,control_black,control,black,monitoring,1,1,0,CLICKED,465,"","",,,,1461,1,UNKNOWN,,343,214,6,ASSUMED_HOSTILE,0,2,FRIEND,165,-2,0,1,FALSE,1,2,21,2,2,0,5,3,6,6,0,0,24
4,control_black,control,black,monitoring,1,2,0,CLICKED,29,"","",,,,1089,6,ASSUMED_HOSTILE,,258,267,2,FRIEND,18,2,FRIEND,224,429,0,1,FALSE,6,2,7,2,2,0,5,4,6,5,0,0,24
4,control_black,control,black,monitoring,1,3,0,CLICKED,1802,"","",,,,942,1,UNKNOWN,,669,611,5,ASSUMED_FRIEND,1,5,ASSUMED_FRIEND,602,330,0,1,FALSE,1,5,13,2,2,0,4,4,7,5,0,0,24
4,control_black,control,black,monitoring,1,4,1,CLICKED,931,"","",,,,1539,1,UNKNOWN,,308,486,6,ASSUMED_HOSTILE,2,6,ASSUMED_HOSTILE,308,486,0,1,FALSE,1,6,2,2,2,0,3,4,7,6,0,0,24
4,control_black,control,black,monitoring,1,5,0,CLICKED,3065,"","",,,,1930,3,NEUTRAL,,442,316,1,UNKNOWN,8,5,ASSUMED_FRIEND,209,646,0,1,FALSE,3,5,3,2,1,0,3,4,8,6,0,0,24
4,control_black,control,black,monitoring,1,6,0,CLICKED,108,"","",,,,1075,1,UNKNOWN,,513,599,3,NEUTRAL,3,4,HOSTILE,388,211,0,1,FALSE,1,4,9,3,1,0,2,4,8,6,0,0,24
4,control_black,control,black,monitoring,1,7,0,CLICKED,334,"","",,,,1678,1,UNKNOWN,,368,153,4,HOSTILE,4,6,ASSUMED_HOSTILE,64,470,0,1,FALSE,1,6,3,3,1,0,1,4,8,7,0,0,24
4,control_black,control,black,monitoring,1,8,0,CLICKED,571,"","",,,,851,5,ASSUMED_FRIEND,,655,530,1,UNKNOWN,1,1,UNKNOWN,569,229,0,1,FALSE,5,1,5,3,1,0,2,4,7,7,0,0,24
4,control_black,control,black,monitoring,1,9,0,CLICKED,241,"","",,,,1747,6,ASSUMED_HOSTILE,,475,349,5,ASSUMED_FRIEND,2,1,UNKNOWN,416,282,0,1,FALSE,6,1,15,3,1,0,3,4,7,6,0,0,24
4,control_black,control,black,monitoring,1,10,0,CLICKED,292,"","",,,,1928,1,UNKNOWN,,127,309,6,ASSUMED_HOSTILE,1,2,FRIEND,474,336,0,1,FALSE,1,2,19,3,1,0,2,5,7,6,0,0,24
4,control_black,control,black,monitoring,1,11,0,CLICKED,202,"","",,,,530,5,ASSUMED_FRIEND,,226,325,2,FRIEND,8,4,HOSTILE,424,553,0,1,FALSE,5,4,18,4,1,0,2,5,6,6,0,0,24
4,control_black,control,black,monitoring,1,12,0,CLICKED,845,"","",,,,797,5,ASSUMED_FRIEND,,365,594,2,FRIEND,12,1,UNKNOWN,576,432,0,1,FALSE,5,1,0,4,1,0,3,5,5,6,0,0,24
4,control_black,control,black,monitoring,1,13,0,CLICKED,85,"","",,,,815,5,ASSUMED_FRIEND,,237,522,5,ASSUMED_FRIEND,13,4,HOSTILE,381,371,0,1,FALSE,5,4,14,5,1,0,3,5,4,6,0,0,24
4,control_black,control,black,monitoring,1,14,0,CLICKED,461,"","",,,,1667,2,FRIEND,,271,450,6,ASSUMED_HOSTILE,0,5,ASSUMED_FRIEND,424,619,0,1,FALSE,2,5,21,5,1,0,3,4,5,6,0,0,24
4,control_black,control,black,monitoring,1,15,0,CLICKED,261,"","",,,,1775,3,NEUTRAL,,413,274,2,FRIEND,9,2,FRIEND,596,303,0,1,FALSE,3,2,1,5,0,0,3,5,5,6,0,0,24
4,control_black,control,black,monitoring,1,16,0,CLICKED,106,"","",,,,1978,6,ASSUMED_HOSTILE,,513,392,2,FRIEND,4,1,UNKNOWN,163,416,0,1,FALSE,6,1,9,5,0,0,4,5,5,5,0,0,24
4,control_black,control,black,monitoring,1,17,0,CLICKED,104,"","",,,,640,6,ASSUMED_HOSTILE,,727,463,1,UNKNOWN,19,2,FRIEND,68,39,0,1,FALSE,6,2,12,5,0,0,4,6,5,4,0,0,24
4,control_black,control,black,monitoring,1,18,0,CLICKED,830,"","",,,,1244,5,ASSUMED_FRIEND,,439,563,6,ASSUMED_HOSTILE,0,2,FRIEND,161,446,0,1,FALSE,5,2,23,5,0,0,4,7,4,4,0,0,24
4,control_black,control,black,monitoring,1,19,1,CLICKED,362,"","",,,,1250,2,FRIEND,,239,405,6,ASSUMED_HOSTILE,0,6,ASSUMED_HOSTILE,239,405,0,1,FALSE,2,6,0,5,0,0,4,6,4,5,0,0,24
4,control_black,control,black,monitoring,1,20,0,CLICKED,52,"","",,,,1152,5,ASSUMED_FRIEND,,435,142,4,HOSTILE,14,6,ASSUMED_HOSTILE,292,727,0,1,FALSE,5,6,10,5,0,0,4,6,3,6,0,0,24
4,control_black,control,black,monitoring,1,21,0,CLICKED,169,"","",,,,1561,1,UNKNOWN,,203,284,2,FRIEND,2,4,HOSTILE,421,251,0,1,FALSE,1,4,18,6,0,0,3,6,3,6,0,0,24
4,control_black,control,black,monitoring,1,22,0,CLICKED,187,"","",,,,1419,6,ASSUMED_HOSTILE,,484,307,2,FRIEND,0,4,HOSTILE,216,687,0,1,FALSE,6,4,9,7,0,0,3,6,3,5,0,0,24
4,control_black,control,black,monitoring,1,23,0,CLICKED,11,"","",,,,1503,6,ASSUMED_HOSTILE,,577,429,5,ASSUMED_FRIEND,14,5,ASSUMED_FRIEND,453,407,0,1,FALSE,6,5,17,7,0,0,3,6,4,4,0,0,24
4,control_black,control,black,monitoring,1,24,0,CLICKED,249,"","",,,,1370,1,UNKNOWN,,615,200,5,ASSUMED_FRIEND,4,2,FRIEND,232,554,0,1,FALSE,1,2,16,7,0,0,2,7,4,4,0,0,24
4,control_black,control,black,monitoring,1,25,0,CLICKED,152,"","",,,,1653,5,ASSUMED_FRIEND,,678,388,5,ASSUMED_FRIEND,14,4,HOSTILE,508,306,0,1,FALSE,5,4,15,8,0,0,2,7,3,4,0,0,24
4,control_black,control,black,monitoring,1,26,0,CLICKED,116,"","",,,,884,5,ASSUMED_FRIEND,,300,297,2,FRIEND,15,4,HOSTILE,543,368,0,1,FALSE,5,4,19,9,0,0,2,7,2,4,0,0,24
4,control_black,control,black,monitoring,1,27,0,CLICKED,221,"","",,,,1239,1,UNKNOWN,,520,501,4,HOSTILE,5,5,ASSUMED_FRIEND,657,335,0,1,FALSE,1,5,11,9,0,0,1,7,3,4,0,0,24
4,control_black,control,black,monitoring,1,28,0,CLICKED,126,"","",,,,1122,2,FRIEND,,657,623,4,HOSTILE,1,4,HOSTILE,60,93,0,1,FALSE,2,4,8,10,0,0,1,6,3,4,0,0,24
4,control_black,control,black,monitoring,1,29,0,CLICKED,415,"","",,,,1091,6,ASSUMED_HOSTILE,,284,499,2,FRIEND,20,4,HOSTILE,298,410,0,1,FALSE,6,4,6,11,0,0,1,6,3,3,0,0,24
4,control_black,control,black,monitoring,1,30,0,CLICKED,257,"","",,,,1194,5,ASSUMED_FRIEND,,363,331,4,HOSTILE,5,3,NEUTRAL,643,444,0,1,FALSE,5,3,10,11,1,0,1,6,2,3,0,0,24
4,control_black,control,black,monitoring,2,1,0,CLICKED,1058,"","",,,,977,6,ASSUMED_HOSTILE,,269,164,5,ASSUMED_FRIEND,18,5,ASSUMED_FRIEND,726,646,0,1,FALSE,6,5,16,2,2,0,6,2,7,5,0,0,24
4,control_black,control,black,monitoring,2,2,0,CLICKED,382,"","",,,,1905,5,ASSUMED_FRIEND,,432,191,6,ASSUMED_HOSTILE,12,2,FRIEND,510,234,0,1,FALSE,5,2,20,2,2,0,6,3,6,5,0,0,24
4,control_black,control,black,monitoring,2,3,0,CLICKED,1618,"","",,,,1059,1,UNKNOWN,,364,403,6,ASSUMED_HOSTILE,0,3,NEUTRAL,288,210,0,1,FALSE,1,3,22,2,3,0,5,3,6,5,0,0,24
4,control_black,control,black,monitoring,2,4,0,CLICKED,869,"","",,,,715,4,HOSTILE,,634,427,3,NEUTRAL,10,6,ASSUMED_HOSTILE,540,420,0,1,FALSE,4,6,8,1,3,0,5,3,6,6,0,0,24
4,control_black,control,black,monitoring,2,5,0,CLICKED,108,"","",,,,819,5,ASSUMED_FRIEND,,453,293,1,UNKNOWN,13,3,NEUTRAL,549,500,0,1,FALSE,5,3,3,1,4,0,5,3,5,6,0,0,24
4,control_black,control,black,monitoring,2,6,0,CLICKED,554,"","",,,,675,5,ASSUMED_FRIEND,,111,380,1,UNKNOWN,14,2,FRIEND,320,487,0,1,FALSE,5,2,5,1,4,0,5,4,4,6,0,0,24
4,control_black,control,black,monitoring,2,7,0,CLICKED,698,"","",,,,1883,2,FRIEND,,319,429,2,FRIEND,6,3,NEUTRAL,535,320,0,1,FALSE,2,3,12,1,5,0,5,3,4,6,0,0,24
4,control_black,control,black,monitoring,2,8,1,CLICKED,1121,"","",,,,903,5,ASSUMED_FRIEND,,81,550,6,ASSUMED_HOSTILE,15,6,ASSUMED_HOSTILE,81,550,0,1,FALSE,5,6,15,1,5,0,5,3,3,7,0,0,24
4,control_black,control,black,monitoring,2,9,0,CLICKED,946,"","",,,,1526,6,ASSUMED_HOSTILE,,31,398,3,NEUTRAL,10,5,ASSUMED_FRIEND,263,115,0,1,FALSE,6,5,8,1,5,0,5,3,4,6,0,0,24
4,control_black,control,black,monitoring,2,10,0,CLICKED,323,"","",,,,1187,6,ASSUMED_HOSTILE,,138,264,1,UNKNOWN,15,4,HOSTILE,144,446,0,1,FALSE,6,4,1,2,5,0,5,3,4,5,0,0,24
4,control_black,control,black,monitoring,2,11,1,CLICKED,974,"","",,,,1280,5,ASSUMED_FRIEND,,177,217,1,UNKNOWN,10,1,UNKNOWN,177,217,0,1,FALSE,5,1,10,2,5,0,6,3,3,5,0,0,24
4,control_black,control,black,monitoring,2,12,0,CLICKED,893,"","",,,,656,3,NEUTRAL,,521,160,5,ASSUMED_FRIEND,0,4,HOSTILE,473,349,0,1,FALSE,3,4,18,3,4,0,6,3,3,5,0,0,24
4,control_black,control,black,monitoring,2,13,0,CLICKED,1892,"","",,,,825,1,UNKNOWN,,354,354,1,UNKNOWN,1,5,ASSUMED_FRIEND,431,270,0,1,FALSE,1,5,5,3,4,0,5,3,4,5,0,0,24
4,control_black,control,black,monitoring,2,14,0,CLICKED,1022,"","",,,,527,1,UNKNOWN,,774,223,3,NEUTRAL,2,3,NEUTRAL,429,408,0,1,FALSE,1,3,6,3,5,0,4,3,4,5,0,0,24
4,control_black,control,black,monitoring,2,15,0,CLICKED,991,"","",,,,635,1,UNKNOWN,,367,364,4,HOSTILE,3,4,HOSTILE,636,126,0,1,FALSE,1,4,11,4,5,0,3,3,4,5,0,0,24
4,control_black,control,black,monitoring,2,16,1,CLICKED,783,"","",,,,1700,3,NEUTRAL,,510,467,1,UNKNOWN,2,1,UNKNOWN,510,467,0,1,FALSE,3,1,2,4,4,0,4,3,4,5,0,0,24
4,control_black,control,black,monitoring,2,17,0,TIMEOUT,,"","",,,,1212,1,UNKNOWN,,,,,,2,6,ASSUMED_HOSTILE,456,656,0,1,FALSE,1,6,,4,4,0,3,3,4,6,0,0,24
4,control_black,control,black,monitoring,2,18,0,CLICKED,204,"","",,,,1155,5,ASSUMED_FRIEND,,434,158,5,ASSUMED_FRIEND,1,3,NEUTRAL,607,142,0,1,FALSE,5,3,16,4,5,0,3,3,3,6,0,0,24
4,control_black,control,black,monitoring,2,19,0,CLICKED,548,"","",,,,1503,6,ASSUMED_HOSTILE,,370,164,4,HOSTILE,2,3,NEUTRAL,636,421,0,1,FALSE,6,3,3,4,6,0,3,3,3,5,0,0,24
4,control_black,control,black,monitoring,2,20,0,CLICKED,1044,"","",,,,1336,4,HOSTILE,,126,587,4,HOSTILE,0,5,ASSUMED_FRIEND,557,311,0,1,FALSE,4,5,15,3,6,0,3,3,4,5,0,0,24
4,control_black,control,black,monitoring,2,21,1,CLICKED,622,"","",,,,842,5,ASSUMED_FRIEND,,549,326,6,ASSUMED_HOSTILE,0,6,ASSUMED_HOSTILE,549,326,0,1,FALSE,5,6,0,3,6,0,3,3,3,6,0,0,24
4,control_black,control,black,monitoring,2,22,0,CLICKED,735,"","",,,,1510,6,ASSUMED_HOSTILE,,310,526,6,ASSUMED_HOSTILE,0,4,HOSTILE,686,410,0,1,FALSE,6,4,21,4,6,0,3,3,3,5,0,0,24
4,control_black,control,black,monitoring,2,23,0,CLICKED,923,"","",,,,735,6,ASSUMED_HOSTILE,,496,461,2,FRIEND,19,1,UNKNOWN,81,242,0,1,FALSE,6,1,12,4,6,0,4,3,3,4,0,0,24
4,control_black,control,black,monitoring,2,24,0,CLICKED,542,"","",,,,1323,6,ASSUMED_HOSTILE,,446,314,3,NEUTRAL,20,1,UNKNOWN,529,528,0,1,FALSE,6,1,1,4,6,0,5,3,3,3,0,0,24
4,control_black,control,black,monitoring,2,25,1,CLICKED,862,"","",,,,1561,1,UNKNOWN,,485,265,4,HOSTILE,4,4,HOSTILE,485,265,0,1,FALSE,1,4,4,5,6,0,4,3,3,3,0,0,24
4,control_black,control,black,monitoring,2,26,1,CLICKED,945,"","",,,,635,1,UNKNOWN,,452,116,5,ASSUMED_FRIEND,5,5,ASSUMED_FRIEND,452,116,0,1,FALSE,1,5,5,5,6,0,3,3,4,3,0,0,24
4,control_black,control,black,monitoring,2,27,1,CLICKED,814,"","",,,,1794,6,ASSUMED_HOSTILE,,312,297,2,FRIEND,21,2,FRIEND,312,297,0,1,FALSE,6,2,21,5,6,0,3,4,4,2,0,0,24
4,control_black,control,black,monitoring,2,28,0,CLICKED,1624,"","",,,,512,1,UNKNOWN,,114,283,3,NEUTRAL,10,2,FRIEND,350,607,0,1,FALSE,1,2,13,5,6,0,2,5,4,2,0,0,24
4,control_black,control,black,monitoring,2,29,0,CLICKED,913,"","",,,,1404,5,ASSUMED_FRIEND,,458,366,2,FRIEND,5,4,HOSTILE,622,104,0,1,FALSE,5,4,7,6,6,0,2,5,3,2,0,0,24
4,control_black,control,black,monitoring,2,30,0,CLICKED,186,"","",,,,657,6,ASSUMED_HOSTILE,,282,369,5,ASSUMED_FRIEND,22,3,NEUTRAL,492,486,0,1,FALSE,6,3,16,6,7,0,2,5,3,1,0,0,24
4,control_black,control,black,monitoring,3,1,0,TIMEOUT,,"","",,,,576,6,ASSUMED_HOSTILE,,,,,,18,3,NEUTRAL,532,439,0,1,FALSE,6,3,,2,3,0,6,2,6,5,0,0,24
4,control_black,control,black,monitoring,3,2,1,CLICKED,916,"","",,,,744,3,NEUTRAL,,433,72,6,ASSUMED_HOSTILE,8,6,ASSUMED_HOSTILE,433,72,0,1,FALSE,3,6,8,2,2,0,6,2,6,6,0,0,24
4,control_black,control,black,monitoring,3,3,0,TIMEOUT,,"","",,,,1853,1,UNKNOWN,,,,,,0,6,ASSUMED_HOSTILE,322,592,0,1,FALSE,1,6,,2,2,0,5,2,6,7,0,0,24
4,control_black,control,black,monitoring,3,4,0,TIMEOUT,,"","",,,,825,6,ASSUMED_HOSTILE,,,,,,0,3,NEUTRAL,589,720,0,1,FALSE,6,3,,2,3,0,5,2,6,6,0,0,24
4,control_black,control,black,monitoring,3,5,1,CLICKED,1257,"","",,,,1459,4,HOSTILE,,203,408,2,FRIEND,10,2,FRIEND,203,408,0,1,FALSE,4,2,10,1,3,0,5,3,6,6,0,0,24
4,control_black,control,black,monitoring,3,6,0,TIMEOUT,,"","",,,,942,5,ASSUMED_FRIEND,,,,,,12,2,FRIEND,456,542,0,1,FALSE,5,2,,1,3,0,5,4,5,6,0,0,24
4,control_black,control,black,monitoring,3,7,0,TIMEOUT,,"","",,,,874,1,UNKNOWN,,,,,,1,6,ASSUMED_HOSTILE,232,454,0,1,FALSE,1,6,,1,3,0,4,4,5,7,0,0,24
4,control_black,control,black,monitoring,3,8,1,CLICKED,1159,"","",,,,989,6,ASSUMED_HOSTILE,,191,522,3,NEUTRAL,1,3,NEUTRAL,191,522,0,1,FALSE,6,3,1,1,4,0,4,4,5,6,0,0,24
4,control_black,control,black,monitoring,3,9,0,TIMEOUT,,"","",,,,1105,1,UNKNOWN,,,,,,2,3,NEUTRAL,627,31,0,1,FALSE,1,3,,1,5,0,3,4,5,6,0,0,24
4,control_black,control,black,monitoring,3,10,1,CLICKED,1096,"","",,,,1656,1,UNKNOWN,,159,217,4,HOSTILE,3,4,HOSTILE,159,217,0,1,FALSE,1,4,3,2,5,0,2,4,5,6,0,0,24
4,control_black,control,black,monitoring,3,11,1,CLICKED,3789,"","",,,,1298,6,ASSUMED_HOSTILE,,226,205,1,UNKNOWN,8,1,UNKNOWN,226,205,0,1,FALSE,6,1,8,2,5,0,3,4,5,5,0,0,24
4,control_black,control,black,monitoring,3,12,1,CLICKED,926,"","",,,,1291,4,HOSTILE,,216,202,1,UNKNOWN,3,1,UNKNOWN,216,202,0,1,FALSE,4,1,3,1,5,0,4,4,5,5,0,0,24
4,control_black,control,black,monitoring,3,13,0,CLICKED,2025,"","",,,,1856,6,ASSUMED_HOSTILE,,169,184,3,NEUTRAL,19,4,HOSTILE,455,192,0,1,FALSE,6,4,2,2,5,0,4,4,5,4,0,0,24
4,control_black,control,black,monitoring,3,14,1,CLICKED,967,"","",,,,682,5,ASSUMED_FRIEND,,256,394,1,UNKNOWN,13,1,UNKNOWN,256,394,0,1,FALSE,5,1,13,2,5,0,5,4,4,4,0,0,24
4,control_black,control,black,monitoring,3,15,1,CLICKED,774,"","",,,,1667,6,ASSUMED_HOSTILE,,466,222,2,FRIEND,20,2,FRIEND,466,222,0,1,FALSE,6,2,20,2,5,0,5,5,4,3,0,0,24
4,control_black,control,black,monitoring,3,16,0,CLICKED,3950,"","",,,,1396,5,ASSUMED_FRIEND,,138,440,1,UNKNOWN,14,2,FRIEND,524,207,0,1,FALSE,5,2,3,2,5,0,5,6,3,3,0,0,24
4,control_black,control,black,monitoring,3,17,0,TIMEOUT,,"","",,,,1740,5,ASSUMED_FRIEND,,,,,,15,6,ASSUMED_HOSTILE,171,301,0,1,FALSE,5,6,,2,5,0,5,6,2,4,0,0,24
4,control_black,control,black,monitoring,3,18,1,CLICKED,1024,"","",,,,1313,4,HOSTILE,,711,254,3,NEUTRAL,11,3,NEUTRAL,711,254,0,1,FALSE,4,3,11,1,6,0,5,6,2,4,0,0,24
4,control_black,control,black,monitoring,3,19,1,CLICKED,917,"","",,,,670,1,UNKNOWN,,414,411,3,NEUTRAL,3,3,NEUTRAL,414,411,0,1,FALSE,1,3,3,1,7,0,4,6,2,4,0,0,24
4,control_black,control,black,monitoring,3,20,1,CLICKED,1125,"","",,,,541,6,ASSUMED_HOSTILE,,220,290,2,FRIEND,15,2,FRIEND,220,290,0,1,FALSE,6,2,15,1,7,0,4,7,2,3,0,0,24
4,control_black,control,black,monitoring,3,21,0,TIMEOUT,,"","",,,,1906,1,UNKNOWN,,,,,,4,5,ASSUMED_FRIEND,115,254,0,1,FALSE,1,5,,1,7,0,3,7,3,3,0,0,24
4,control_black,control,black,monitoring,3,22,1,CLICKED,899,"","",,,,1200,2,FRIEND,,336,489,1,UNKNOWN,6,1,UNKNOWN,336,489,0,1,FALSE,2,1,6,1,7,0,4,6,3,3,0,0,24
4,control_black,control,black,monitoring,3,23,1,CLICKED,1021,"","",,,,1265,5,ASSUMED_FRIEND,,113,235,6,ASSUMED_HOSTILE,4,6,ASSUMED_HOSTILE,113,235,0,1,FALSE,5,6,4,1,7,0,4,6,2,4,0,0,24
4,control_black,control,black,monitoring,3,24,1,CLICKED,3627,"","",,,,1815,6,ASSUMED_HOSTILE,,248,458,5,ASSUMED_FRIEND,4,5,ASSUMED_FRIEND,248,458,0,1,FALSE,6,5,4,1,7,0,4,6,3,3,0,0,24
4,control_black,control,black,monitoring,3,25,0,TIMEOUT,,"","",,,,1306,1,UNKNOWN,,,,,,5,3,NEUTRAL,470,537,0,1,FALSE,1,3,,1,8,0,3,6,3,3,0,0,24
4,control_black,control,black,monitoring,3,26,0,TIMEOUT,,"","",,,,1768,5,ASSUMED_FRIEND,,,,,,4,3,NEUTRAL,225,370,0,1,FALSE,5,3,,1,9,0,3,6,2,3,0,0,24
4,control_black,control,black,monitoring,3,27,0,TIMEOUT,,"","",,,,1666,6,ASSUMED_HOSTILE,,,,,,21,5,ASSUMED_FRIEND,466,534,0,1,FALSE,6,5,,1,9,0,3,6,3,2,0,0,24
4,control_black,control,black,monitoring,3,28,0,TIMEOUT,,"","",,,,744,5,ASSUMED_FRIEND,,,,,,16,3,NEUTRAL,89,740,0,1,FALSE,5,3,,1,10,0,3,6,2,2,0,0,24
4,control_black,control,black,monitoring,3,29,1,CLICKED,765,"","",,,,1035,5,ASSUMED_FRIEND,,519,567,1,UNKNOWN,17,1,UNKNOWN,519,567,0,1,FALSE,5,1,17,1,10,0,4,6,1,2,0,0,24
4,control_black,control,black,monitoring,3,30,0,TIMEOUT,,"","",,,,1107,1,UNKNOWN,,,,,,6,2,FRIEND,162,536,0,1,FALSE,1,2,,1,10,0,3,7,1,2,0,0,24
5,control_black,control,black,categoryLearning,,1,0,TIMEOUT,,UNKNOWN,,1,,1,,,"",,,,,"",,,"",,,,,,,,,,,,,,,,,,
5,control_black,control,black,categoryLearning,,2,0,CLICKED,1889,NEUTRAL,FRIEND,3,2,1,,,"",,,,,"",,,"",,,,,,,,,,,,,,,,,,
5,control_black,control,black,categoryLearning,,3,1,CLICKED,1748,HOSTILE,HOSTILE,4,4,1,,,"",,,,,"",,,"",,,,,,,,,,,,,,,,,,
5,control_black,control,black,categoryLearning,,4,0,CLICKED,1730,FRIEND,UNKNOWN,2,1,1,,,"",,,,,"",,,"",,,,,,,,,,,,,,,,,,
5,control_black,control,black,categoryLearning,,5,0,CLICKED,2491,NEUTRAL,UNKNOWN,3,1,1,,,"",,,,,"",,,"",,,,,,,,,,,,,,,,,,
5,control_black,control,black,categoryLearning,,6,1,CLICKED,1812,FRIEND,FRIEND,2,2,1,,,"",,,,,"",,,"",,,,,,,,,,,,,,,,,,
5,control_black,control,black,categoryLearning,,7,1,CLICKED,1118,HOSTILE,HOSTILE,4,4,1,,,"",,,,,"",,,"",,,,,,,,,,,,,,,,,,
5,control_black,control,black,categoryLearning,,8,0,CLICKED,1268,UNKNOWN,NEUTRAL,1,3,1,,,"",,,,,"",,,"",,,,,,,,,,,,,,,,,,
5,control_black,control,black,categoryLearning,,9,1,CLICKED,1419,HOSTILE,HOSTILE,4,4,1,,,"",,,,,"",,,"",,,,,,,,,,,,,,,,,,
5,control_black,control,black,categoryLearning,,10,1,CLICKED,2684,NEUTRAL,NEUTRAL,3,3,1,,,"",,,,,"",,,"",,,,,,,,,,,,,,,,,,
5,control_black,control,black,categoryLearning,,11,1,CLICKED,869,UNKNOWN,UNKNOWN,1,1,1,,,"",,,,,"",,,"",,,,,,,,,,,,,,,,,,
5,control_black,control,black,categoryLearning,,12,1,CLICKED,697,FRIEND,FRIEND,2,2,1,,,"",,,,,"",,,"",,,,,,,,,,,,,,,,,,
5,control_black,control,black,categoryLearning,,13,1,CLICKED,1011,HOSTILE,HOSTILE,4,4,1,,,"",,,,,"",,,"",,,,,,,,,,,,,,,,,,
5,control_black,control,black,categoryLearning,,14,1,CLICKED,2753,UNKNOWN,UNKNOWN,1,1,1,,,"",,,,,"",,,"",,,,,,,,,,,,,,,,,,
5,control_black,control,black,practiceMonitoring,,1,0,CLICKED,870,"","",,,,1078,4,HOSTILE,5,245,600,3,NEUTRAL,0,3,NEUTRAL,364,207,,,,,,,,,,,,,,,,
5,control_black,control,black,practiceMonitoring,,2,0,CLICKED,2035,"","",,,,1731,3,NEUTRAL,3,296,319,2,FRIEND,1,1,UNKNOWN,314,609,,,,,,,,,,,,,,,,
5,control_black,control,black,practiceMonitoring,,3,0,CLICKED,598,"","",,,,1451,1,UNKNOWN,3,93,334,2,FRIEND,2,2,FRIEND,337,138,,,,,,,,,,,,,,,,
5,control_black,control,black,monitoring,1,1,0,CLICKED,808,"","",,,,548,6,ASSUMED_HOSTILE,,391,104,5,ASSUMED_FRIEND,18,1,UNKNOWN,307,131,0,1,FALSE,6,1,14,2,2,0,7,2,6,5,0,0,24
5,control_black,control,black,monitoring,1,2,0,CLICKED,1635,"","",,,,1474,1,UNKNOWN,,544,308,5,ASSUMED_FRIEND,0,3,NEUTRAL,726,324,0,1,FALSE,1,3,16,2,3,0,6,2,6,5,0,0,24
5,control_black,control,black,monitoring,1,3,0,CLICKED,293,"","",,,,1685,6,ASSUMED_HOSTILE,,149,432,6,ASSUMED_HOSTILE,19,3,NEUTRAL,103,272,0,1,FALSE,6,3,22,2,4,0,6,2,6,4,0,0,24
5,control_black,control,black,monitoring,1,4,0,CLICKED,305,"","",,,,1817,1,UNKNOWN,,389,535,3,NEUTRAL,1,5,ASSUMED_FRIEND,388,304,0,1,FALSE,1,5,8,2,4,0,5,2,7,4,0,0,24
5,control_black,control,black,monitoring,1,5,0,CLICKED,566,"","",,,,670,6,ASSUMED_HOSTILE,,376,195,1,UNKNOWN,20,5,ASSUMED_FRIEND,415,674,0,1,FALSE,6,5,18,2,4,0,5,2,8,3,0,0,24
5,control_black,control,black,monitoring,1,6,0,CLICKED,258,"","",,,,1759,5,ASSUMED_FRIEND,,223,435,1,UNKNOWN,1,3,NEUTRAL,412,189,0,1,FALSE,5,3,2,2,5,0,5,2,7,3,0,0,24
5,control_black,control,black,monitoring,1,7,0,CLICKED,598,"","",,,,1216,1,UNKNOWN,,485,484,1,UNKNOWN,2,6,ASSUMED_HOSTILE,209,452,0,1,FALSE,1,6,3,2,5,0,4,2,7,4,0,0,24
5,control_black,control,black,monitoring,1,8,0,CLICKED,941,"","",,,,1788,6,ASSUMED_HOSTILE,,700,128,3,NEUTRAL,2,1,UNKNOWN,192,597,0,1,FALSE,6,1,1,2,5,0,5,2,7,3,0,0,24
5,control_black,control,black,monitoring,1,9,0,CLICKED,130,"","",,,,573,5,ASSUMED_FRIEND,,220,237,5,ASSUMED_FRIEND,12,3,NEUTRAL,274,88,0,1,FALSE,5,3,14,2,6,0,5,2,6,3,0,0,24
5,control_black,control,black,monitoring,1,10,0,CLICKED,1673,"","",,,,1171,1,UNKNOWN,,567,591,3,NEUTRAL,2,6,ASSUMED_HOSTILE,303,595,0,1,FALSE,1,6,8,2,6,0,4,2,6,4,0,0,24
5,control_black,control,black,monitoring,1,11,0,CLICKED,4,"","",,,,1612,2,FRIEND,,412,279,4,HOSTILE,6,5,ASSUMED_FRIEND,361,704,0,1,FALSE,2,5,10,2,6,0,4,1,7,4,0,0,24
5,control_black,control,black,monitoring,1,12,0,CLICKED,1364,"","",,,,716,5,ASSUMED_FRIEND,,435,432,5,ASSUMED_FRIEND,6,6,ASSUMED_HOSTILE,318,641,0,1,FALSE,5,6,13,2,6,0,4,1,6,5,0,0,24
5,control_black,control,black,monitoring,1,13,0,CLICKED,538,"","",,,,1455,1,UNKNOWN,,208,189,4,HOSTILE,3,5,ASSUMED_FRIEND,527,409,0,1,FALSE,1,5,11,2,6,0,3,1,7,5,0,0,24
5,control_black,control,black,monitoring,1,14,0,CLICKED,509,"","",,,,1103,5,ASSUMED_FRIEND,,321,366,5,ASSUMED_FRIEND,3,6,ASSUMED_HOSTILE,410,409,0,1,FALSE,5,6,20,2,6,0,3,1,6,6,0,0,24
5,control_black,control,black,monitoring,1,15,0,CLICKED,518,"","",,,,1160,5,ASSUMED_FRIEND,,359,280,3,NEUTRAL,13,4,HOSTILE,416,527,0,1,FALSE,5,4,12,3,6,0,3,1,5,6,0,0,24
5,control_black,control,black,monitoring,1,16,0,CLICKED,1740,"","",,,,1218,6,ASSUMED_HOSTILE,,469,530,6,ASSUMED_HOSTILE,2,4,HOSTILE,484,440,0,1,FALSE,6,4,22,4,6,0,3,1,5,5,0,0,24
5,control_black,control,black,monitoring,1,17,0,CLICKED,194,"","",,,,682,6,ASSUMED_HOSTILE,,537,390,4,HOSTILE,3,2,FRIEND,404,500,0,1,FALSE,6,2,13,4,6,0,3,2,5,4,0,0,24
5,control_black,control,black,monitoring,1,18,0,CLICKED,325,"","",,,,1074,6,ASSUMED_HOSTILE,,587,460,1,UNKNOWN,6,1,UNKNOWN,498,611,0,1,FALSE,6,1,18,4,6,0,4,2,5,3,0,0,24
5,control_black,control,black,monitoring,1,19,0,CLICKED,844,"","",,,,1175,6,ASSUMED_HOSTILE,,338,444,4,HOSTILE,21,2,FRIEND,257,410,0,1,FALSE,6,2,10,4,6,0,4,3,5,2,0,0,24
5,control_black,control,black,monitoring,1,20,0,CLICKED,611,"","",,,,646,1,UNKNOWN,,341,328,2,FRIEND,4,3,NEUTRAL,223,710,0,1,FALSE,1,3,21,4,7,0,3,3,5,2,0,0,24
5,control_black,control,black,monitoring,1,21,0,CLICKED,517,"","",,,,1705,1,UNKNOWN,,415,210,6,ASSUMED_HOSTILE,5,4,HOSTILE,245,273,0,1,FALSE,1,4,23,5,7,0,2,3,5,2,0,0,24
5,control_black,control,black,monitoring,1,22,0,CLICKED,636,"","",,,,1307,1,UNKNOWN,,208,297,3,NEUTRAL,6,4,HOSTILE,454,674,0,1,FALSE,1,4,1,6,7,0,1,3,5,2,0,0,24
5,control_black,control,black,monitoring,1,23,0,CLICKED,115,"","",,,,730,4,HOSTILE,,714,291,1,UNKNOWN,2,3,NEUTRAL,449,504,0,1,FALSE,4,3,18,5,8,0,1,3,5,2,0,0,24
5,control_black,control,black,monitoring,1,24,0,CLICKED,474,"","",,,,1009,5,ASSUMED_FRIEND,,593,294,1,UNKNOWN,14,2,FRIEND,343,632,0,1,FALSE,5,2,18,5,8,0,1,4,4,2,0,0,24
5,control_black,control,black,monitoring,1,25,0,CLICKED,650,"","",,,,998,3,NEUTRAL,,551,348,4,HOSTILE,0,5,ASSUMED_FRIEND,630,506,0,1,FALSE,3,5,11,5,7,0,1,4,5,2,0,0,24
5,control_black,control,black,monitoring,1,26,0,CLICKED,834,"","",,,,940,3,NEUTRAL,,280,203,3,NEUTRAL,1,1,UNKNOWN,356,425,0,1,FALSE,3,1,9,5,6,0,2,4,5,2,0,0,24
5,control_black,control,black,monitoring,1,27,0,CLICKED,994,"","",,,,1665,1,UNKNOWN,,294,298,6,ASSUMED_HOSTILE,1,4,HOSTILE,570,364,0,1,FALSE,1,4,23,6,6,0,1,4,5,2,0,0,24
5,control_black,control,black,monitoring,1,28,0,CLICKED,754,"","",,,,671,5,ASSUMED_FRIEND,,310,183,1,UNKNOWN,0,6,ASSUMED_HOSTILE,615,410,0,1,FALSE,5,6,18,6,6,0,1,4,4,3,0,0,24
5,control_black,control,black,monitoring,1,29,0,CLICKED,205,"","",,,,592,1,UNKNOWN,,391,317,4,HOSTILE,18,3,NEUTRAL,353,151,0,1,FALSE,1,3,10,6,7,0,0,4,4,3,0,0,24
5,control_black,control,black,monitoring,1,30,0,TIMEOUT,,"","",,,,536,4,HOSTILE,,,,,,1,6,ASSUMED_HOSTILE,578,257,0,1,FALSE,4,6,,5,7,0,0,4,4,4,0,0,24
5,control_black,control,black,monitoring,2,1,0,TIMEOUT,,"","",,,,915,6,ASSUMED_HOSTILE,,,,,,18,2,FRIEND,634,422,0,1,FALSE,6,2,,2,2,0,6,3,6,5,0,0,24
5,control_black,control,black,monitoring,2,2,0,TIMEOUT,,"","",,,,1634,6,ASSUMED_HOSTILE,,,,,,19,4,HOSTILE,441,96,0,1,FALSE,6,4,,3,2,0,6,3,6,4,0,0,24
5,control_black,control,black,monitoring,2,3,0,TIMEOUT,,"","",,,,1565,1,UNKNOWN,,,,,,0,6,ASSUMED_HOSTILE,338,181,0,1,FALSE,1,6,,3,2,0,5,3,6,5,0,0,24
5,control_black,control,black,monitoring,2,4,1,CLICKED,1194,"","",,,,515,5,ASSUMED_FRIEND,,220,253,1,UNKNOWN,12,1,UNKNOWN,220,253,0,1,FALSE,5,1,12,3,2,0,6,3,5,5,0,0,24
5,control_black,control,black,monitoring,2,5,1,CLICKED,1067,"","",,,,694,1,UNKNOWN,,285,316,4,HOSTILE,1,4,HOSTILE,285,316,0,1,FALSE,1,4,1,4,2,0,5,3,5,5,0,0,24
5,control_black,control,black,monitoring,2,6,1,CLICKED,1065,"","",,,,1463,5,ASSUMED_FRIEND,,411,230,3,NEUTRAL,13,3,NEUTRAL,411,230,0,1,FALSE,5,3,13,4,3,0,5,3,4,5,0,0,24
5,control_black,control,black,monitoring,2,7,1,CLICKED,970,"","",,,,668,4,HOSTILE,,347,312,5,ASSUMED_FRIEND,1,5,ASSUMED_FRIEND,347,312,0,1,FALSE,4,5,1,3,3,0,5,3,5,5,0,0,24
5,control_black,control,black,monitoring,2,8,1,CLICKED,1633,"","",,,,1993,5,ASSUMED_FRIEND,,312,308,4,HOSTILE,1,4,HOSTILE,312,308,0,1,FALSE,5,4,1,4,3,0,5,3,4,5,0,0,24
5,control_black,control,black,monitoring,2,9,1,CLICKED,955,"","",,,,1362,6,ASSUMED_HOSTILE,,270,433,2,FRIEND,0,2,FRIEND,270,433,0,1,FALSE,6,2,0,4,3,0,5,4,4,4,0,0,24
5,control_black,control,black,monitoring,2,10,1,CLICKED,861,"","",,,,1061,2,FRIEND,,263,406,4,HOSTILE,0,4,HOSTILE,263,406,0,1,FALSE,2,4,0,5,3,0,5,3,4,4,0,0,24
5,control_black,control,black,monitoring,2,11,0,CLICKED,403,"","",,,,1084,5,ASSUMED_FRIEND,,158,357,2,FRIEND,14,4,HOSTILE,131,514,0,1,FALSE,5,4,7,6,3,0,5,3,3,4,0,0,24
5,control_black,control,black,monitoring,2,12,1,CLICKED,1226,"","",,,,1227,1,UNKNOWN,,610,656,6,ASSUMED_HOSTILE,2,6,ASSUMED_HOSTILE,610,656,0,1,FALSE,1,6,2,6,3,0,4,3,3,5,0,0,24
5,control_black,control,black,monitoring,2,13,0,TIMEOUT,,"","",,,,1336,6,ASSUMED_HOSTILE,,,,,,2,4,HOSTILE,525,617,0,1,FALSE,6,4,,7,3,0,4,3,3,4,0,0,24
5,control_black,control,black,monitoring,2,14,0,TIMEOUT,,"","",,,,855,5,ASSUMED_FRIEND,,,,,,15,2,FRIEND,492,455,0,1,FALSE,5,2,,7,3,0,4,4,2,4,0,0,24
5,control_black,control,black,monitoring,2,15,0,TIMEOUT,,"","",,,,733,3,NEUTRAL,,,,,,8,6,ASSUMED_HOSTILE,211,494,0,1,FALSE,3,6,,7,2,0,4,4,2,5,0,0,24
5,control_black,control,black,monitoring,2,16,0,TIMEOUT,,"","",,,,1652,6,ASSUMED_HOSTILE,,,,,,8,4,HOSTILE,208,578,0,1,FALSE,6,4,,8,2,0,4,4,2,4,0,0,24
5,control_black,control,black,monitoring,2,17,0,TIMEOUT,,"","",,,,1647,6,ASSUMED_HOSTILE,,,,,,20,5,ASSUMED_FRIEND,226,185,0,1,FALSE,6,5,,8,2,0,4,4,3,3,0,0,24
5,control_black,control,black,monitoring,2,18,0,TIMEOUT,,"","",,,,1035,1,UNKNOWN,,,,,,3,5,ASSUMED_FRIEND,554,105,0,1,FALSE,1,5,,8,2,0,3,4,4,3,0,0,24
5,control_black,control,black,monitoring,2,19,0,TIMEOUT,,"","",,,,992,4,HOSTILE,,,,,,0,2,FRIEND,343,184,0,1,FALSE,4,2,,7,2,0,3,5,4,3,0,0,24
5,control_black,control,black,monitoring,2,20,1,CLICKED,1021,"","",,,,679,2,FRIEND,,263,192,1,UNKNOWN,0,1,UNKNOWN,263,192,0,1,FALSE,2,1,0,7,2,0,4,4,4,3,0,0,24
5,control_black,control,black,monitoring,2,21,1,CLICKED,1120,"","",,,,1003,5,ASSUMED_FRIEND,,388,73,4,HOSTILE,3,4,HOSTILE,388,73,0,1,FALSE,5,4,3,8,2,0,4,4,3,3,0,0,24
5,control_black,control,black,monitoring,2,22,0,TIMEOUT,,"","",,,,762,5,ASSUMED_FRIEND,,,,,,16,2,FRIEND,216,332,0,1,FALSE,5,2,,8,2,0,4,5,2,3,0,0,24
5,control_black,control,black,monitoring,2,23,0,TIMEOUT,,"","",,,,678,6,ASSUMED_HOSTILE,,,,,,21,4,HOSTILE,319,255,0,1,FALSE,6,4,,9,2,0,4,5,2,2,0,0,24
5,control_black,control,black,monitoring,2,24,1,CLICKED,1194,"","",,,,920,5,ASSUMED_FRIEND,,462,422,1,UNKNOWN,17,1,UNKNOWN,462,422,0,1,FALSE,5,1,17,9,2,0,5,5,1,2,0,0,24
5,control_black,control,black,monitoring,2,25,1,CLICKED,945,"","",,,,1418,5,ASSUMED_FRIEND,,355,271,3,NEUTRAL,20,3,NEUTRAL,355,271,0,1,FALSE,5,3,20,9,3,0,5,5,0,2,0,0,24
5,control_black,control,black,monitoring,2,26,1,CLICKED,2738,"","",,,,1504,6,ASSUMED_HOSTILE,,747,456,5,ASSUMED_FRIEND,22,5,ASSUMED_FRIEND,747,456,0,1,FALSE,6,5,22,9,3,0,5,5,1,1,0,0,24
5,control_black,control,black,monitoring,2,27,1,CLICKED,1617,"","",,,,789,6,ASSUMED_HOSTILE,,149,291,1,UNKNOWN,23,1,UNKNOWN,149,291,0,1,FALSE,6,1,23,9,3,0,6,5,1,0,0,0,24
5,control_black,control,black,monitoring,2,28,1,CLICKED,2887,"","",,,,1940,5,ASSUMED_FRIEND,,753,238,6,ASSUMED_HOSTILE,22,6,ASSUMED_HOSTILE,753,238,0,1,FALSE,5,6,22,9,3,0,6,5,0,1,0,0,24
5,control_black,control,black,monitoring,2,29,0,TIMEOUT,,"","",,,,1139,1,UNKNOWN,,,,,,0,3,NEUTRAL,209,328,0,1,FALSE,1,3,,9,4,0,5,5,0,1,0,0,24
5,control_black,control,black,monitoring,2,30,1,CLICKED,1386,"","",,,,1987,3,NEUTRAL,,199,335,4,HOSTILE,0,4,HOSTILE,199,335,0,1,FALSE,3,4,0,10,3,0,5,5,0,1,0,0,24
5,control_black,control,black,monitoring,3,1,0,TIMEOUT,,"","",,,,835,3,NEUTRAL,,,,,,8,2,FRIEND,348,552,0,1,FALSE,3,2,,2,1,0,6,3,6,6,0,0,24
5,control_black,control,black,monitoring,3,2,0,TIMEOUT,,"","",,,,613,6,ASSUMED_HOSTILE,,,,,,18,3,NEUTRAL,481,599,0,1,FALSE,6,3,,2,2,0,6,3,6,5,0,0,24
5,control_black,control,black,monitoring,3,3,0,TIMEOUT,,"","",,,,1718,1,UNKNOWN,,,,,,0,2,FRIEND,651,487,0,1,FALSE,1,2,,2,2,0,5,4,6,5,0,0,24
5,control_black,control,black,monitoring,3,4,1,CLICKED,1857,"","",,,,685,5,ASSUMED_FRIEND,,202,160,6,ASSUMED_HOSTILE,12,6,ASSUMED_HOSTILE,202,160,0,1,FALSE,5,6,12,2,2,0,5,4,5,6,0,0,24
5,control_black,control,black,monitoring,3,5,1,CLICKED,1252,"","",,,,987,5,ASSUMED_FRIEND,,662,119,4,HOSTILE,13,4,HOSTILE,662,119,0,1,FALSE,5,4,13,3,2,0,5,4,4,6,0,0,24
5,control_black,control,black,monitoring,3,6,1,CLICKED,844,"","",,,,1601,1,UNKNOWN,,373,329,5,ASSUMED_FRIEND,1,5,ASSUMED_FRIEND,373,329,0,1,FALSE,1,5,1,3,2,0,4,4,5,6,0,0,24
5,control_black,control,black,monitoring,3,7,1,CLICKED,1297,"","",,,,1591,5,ASSUMED_FRIEND,,450,328,1,UNKNOWN,1,1,UNKNOWN,450,328,0,1,FALSE,5,1,1,3,2,0,5,4,4,6,0,0,24
5,control_black,control,black,monitoring,3,8,1,CLICKED,873,"","",,,,1237,6,ASSUMED_HOSTILE,,232,263,3,NEUTRAL,12,3,NEUTRAL,232,263,0,1,FALSE,6,3,12,3,3,0,5,4,4,5,0,0,24
5,control_black,control,black,monitoring,3,9,1,CLICKED,3001,"","",,,,675,1,UNKNOWN,,295,334,4,HOSTILE,1,4,HOSTILE,295,334,0,1,FALSE,1,4,1,4,3,0,4,4,4,5,0,0,24
5,control_black,control,black,monitoring,3,10,1,CLICKED,866,"","",,,,1844,6,ASSUMED_HOSTILE,,370,406,1,UNKNOWN,19,1,UNKNOWN,370,406,0,1,FALSE,6,1,19,4,3,0,5,4,4,4,0,0,24
5,control_black,control,black,monitoring,3,11,1,CLICKED,1051,"","",,,,1437,6,ASSUMED_HOSTILE,,87,482,5,ASSUMED_FRIEND,20,5,ASSUMED_FRIEND,87,482,0,1,FALSE,6,5,20,4,3,0,5,4,5,3,0,0,24
5,control_black,control,black,monitoring,3,12,1,CLICKED,937,"","",,,,600,1,UNKNOWN,,362,280,2,FRIEND,2,2,FRIEND,362,280,0,1,FALSE,1,2,2,4,3,0,4,5,5,3,0,0,24
5,control_black,control,black,monitoring,3,13,1,CLICKED,800,"","",,,,1977,6,ASSUMED_HOSTILE,,393,313,5,ASSUMED_FRIEND,21,5,ASSUMED_FRIEND,393,313,0,1,FALSE,6,5,21,4,3,0,4,5,6,2,0,0,24
5,control_black,control,black,monitoring,3,14,0,TIMEOUT,,"","",,,,929,5,ASSUMED_FRIEND,,,,,,14,1,UNKNOWN,549,423,0,1,FALSE,5,1,,4,3,0,5,5,5,2,0,0,24
5,control_black,control,black,monitoring,3,15,1,CLICKED,1019,"","",,,,1274,1,UNKNOWN,,295,471,2,FRIEND,3,2,FRIEND,295,471,0,1,FALSE,1,2,3,4,3,0,4,6,5,2,0,0,24
5,control_black,control,black,monitoring,3,16,1,CLICKED,1512,"","",,,,1002,6,ASSUMED_HOSTILE,,411,376,3,NEUTRAL,22,3,NEUTRAL,411,376,0,1,FALSE,6,3,22,4,4,0,4,6,5,1,0,0,24
5,control_black,control,black,monitoring,3,17,0,TIMEOUT,,"","",,,,532,6,ASSUMED_HOSTILE,,,,,,23,3,NEUTRAL,374,545,0,1,FALSE,6,3,,4,5,0,4,6,5,0,0,0,24
5,control_black,control,black,monitoring,3,18,0,TIMEOUT,,"","",,,,1990,5,ASSUMED_FRIEND,,,,,,15,2,FRIEND,401,453,0,1,FALSE,5,2,,4,5,0,4,7,4,0,0,0,24
5,control_black,control,black,monitoring,3,19,0,TIMEOUT,,"","",,,,1064,2,FRIEND,,,,,,0,3,NEUTRAL,548,375,0,1,FALSE,2,3,,4,6,0,4,6,4,0,0,0,24
5,control_black,control,black,monitoring,3,20,0,TIMEOUT,,"","",,,,655,4,HOSTILE,,,,,,1,1,UNKNOWN,329,509,0,1,FALSE,4,1,,3,6,0,5,6,4,0,0,0,24
5,control_black,control,black,monitoring,3,21,1,CLICKED,1141,"","",,,,1286,2,FRIEND,,482,235,6,ASSUMED_HOSTILE,2,6,ASSUMED_HOSTILE,482,235,0,1,FALSE,2,6,2,3,6,0,5,5,4,1,0,0,24
5,control_black,control,black,monitoring,3,22,1,CLICKED,1695,"","",,,,1833,5,ASSUMED_FRIEND,,561,332,3,NEUTRAL,16,3,NEUTRAL,561,332,0,1,FALSE,5,3,16,3,7,0,5,5,3,1,0,0,24
5,control_black,control,black,monitoring,3,23,1,CLICKED,1093,"","",,,,1864,6,ASSUMED_HOSTILE,,341,165,2,FRIEND,2,2,FRIEND,341,165,0,1,FALSE,6,2,2,3,7,0,5,6,3,0,0,0,24
5,control_black,control,black,monitoring,3,24,0,TIMEOUT,,"","",,,,1721,1,UNKNOWN,,,,,,1,2,FRIEND,642,419,0,1,FALSE,1,2,,3,7,0,4,7,3,0,0,0,24
5,control_black,control,black,monitoring,3,25,0,TIMEOUT,,"","",,,,754,5,ASSUMED_FRIEND,,,,,,17,1,UNKNOWN,441,538,0,1,FALSE,5,1,,3,7,0,5,7,2,0,0,0,24
5,control_black,control,black,monitoring,3,26,0,TIMEOUT,,"","",,,,1883,1,UNKNOWN,,,,,,4,3,NEUTRAL,316,282,0,1,FALSE,1,3,,3,8,0,4,7,2,0,0,0,24
5,control_black,control,black,monitoring,3,27,0,TIMEOUT,,"","",,,,999,1,UNKNOWN,,,,,,5,2,FRIEND,572,388,0,1,FALSE,1,2,,3,8,0,3,8,2,0,0,0,24
5,control_black,control,black,monitoring,3,28,0,TIMEOUT,,"","",,,,746,1,UNKNOWN,,,,,,14,5,ASSUMED_FRIEND,465,246,0,1,FALSE,1,5,,3,8,0,2,8,3,0,0,0,24
5,control_black,control,black,monitoring,3,29,0,TIMEOUT,,"","",,,,1138,1,UNKNOWN,,,,,,17,6,ASSUMED_HOSTILE,489,573,0,1,FALSE,1,6,,3,8,0,1,8,3,1,0,0,24
5,control_black,control,black,monitoring,3,30,0,TIMEOUT,,"","",,,,754,5,ASSUMED_FRIEND,,,,,,14,2,FRIEND,732,68,0,1,FALSE,5,2,,3,8,0,1,9,2,1,0,0,24
6,control_black,control,black,categoryLearning,,1,0,TIMEOUT,,FRIEND,,2,,1,,,"",,,,,"",,,"",,,,,,,,,,,,,,,,,,
6,control_black,control,black,categoryLearning,,2,0,CLICKED,3180,NEUTRAL,FRIEND,3,2,1,,,"",,,,,"",,,"",,,,,,,,,,,,,,,,,,
6,control_black,control,black,categoryLearning,,3,1,CLICKED,1932,HOSTILE,HOSTILE,4,4,1,,,"",,,,,"",,,"",,,,,,,,,,,,,,,,,,
6,control_black,control,black,categoryLearning,,4,1,CLICKED,1826,UNKNOWN,UNKNOWN,1,1,1,,,"",,,,,"",,,"",,,,,,,,,,,,,,,,,,
6,control_black,control,black,categoryLearning,,5,1,CLICKED,1416,FRIEND,FRIEND,2,2,1,,,"",,,,,"",,,"",,,,,,,,,,,,,,,,,,
6,control_black,control,black,categoryLearning,,6,1,CLICKED,817,NEUTRAL,NEUTRAL,3,3,1,,,"",,,,,"",,,"",,,,,,,,,,,,,,,,,,
6,control_black,control,black,categoryLearning,,7,1,CLICKED,867,HOSTILE,HOSTILE,4,4,1,,,"",,,,,"",,,"",,,,,,,,,,,,,,,,,,
6,control_black,control,black,categoryLearning,,8,1,CLICKED,1324,UNKNOWN,UNKNOWN,1,1,1,,,"",,,,,"",,,"",,,,,,,,,,,,,,,,,,
6,control_black,control,black,categoryLearning,,9,1,CLICKED,859,UNKNOWN,UNKNOWN,1,1,1,,,"",,,,,"",,,"",,,,,,,,,,,,,,,,,,
6,control_black,control,black,categoryLearning,,10,1,CLICKED,800,HOSTILE,HOSTILE,4,4,1,,,"",,,,,"",,,"",,,,,,,,,,,,,,,,,,
6,control_black,control,black,practiceMonitoring,,1,0,CLICKED,1444,"","",,,,1579,4,HOSTILE,5,473,219,3,NEUTRAL,0,3,NEUTRAL,725,681,,,,,,,,,,,,,,,,
6,control_black,control,black,practiceMonitoring,,2,0,CLICKED,1034,"","",,,,1344,3,NEUTRAL,3,466,253,2,FRIEND,1,1,UNKNOWN,59,183,,,,,,,,,,,,,,,,
6,control_black,control,black,practiceMonitoring,,3,0,CLICKED,1364,"","",,,,877,1,UNKNOWN,0,475,504,3,NEUTRAL,2,2,FRIEND,556,539,,,,,,,,,,,,,,,,
6,control_black,control,black,monitoring,1,1,0,CLICKED,2343,"","",,,,542,1,UNKNOWN,,216,512,1,UNKNOWN,0,2,FRIEND,602,735,0,1,FALSE,1,2,2,2,2,0,5,3,6,6,0,0,24
6,control_black,control,black,monitoring,1,2,1,CLICKED,1051,"","",,,,1062,6,ASSUMED_HOSTILE,,408,401,2,FRIEND,18,2,FRIEND,408,401,0,1,FALSE,6,2,18,2,2,0,5,4,6,5,0,0,24
6,control_black,control,black,monitoring,1,3,1,CLICKED,947,"","",,,,1013,1,UNKNOWN,,489,183,5,ASSUMED_FRIEND,1,5,ASSUMED_FRIEND,489,183,0,1,FALSE,1,5,1,2,2,0,4,4,7,5,0,0,24
6,control_black,control,black,monitoring,1,4,1,CLICKED,1096,"","",,,,1721,1,UNKNOWN,,523,586,6,ASSUMED_HOSTILE,2,6,ASSUMED_HOSTILE,523,586,0,1,FALSE,1,6,2,2,2,0,3,4,7,6,0,0,24
6,control_black,control,black,monitoring,1,5,0,TIMEOUT,,"","",,,,1046,3,NEUTRAL,,,,,,8,5,ASSUMED_FRIEND,340,135,0,1,FALSE,3,5,,2,1,0,3,4,8,6,0,0,24
6,control_black,control,black,monitoring,1,6,1,CLICKED,1631,"","",,,,1844,1,UNKNOWN,,467,467,4,HOSTILE,3,4,HOSTILE,467,467,0,1,FALSE,1,4,3,3,1,0,2,4,8,6,0,0,24
6,control_black,control,black,monitoring,1,7,0,TIMEOUT,,"","",,,,774,1,UNKNOWN,,,,,,4,6,ASSUMED_HOSTILE,641,653,0,1,FALSE,1,6,,3,1,0,1,4,8,7,0,0,24
6,control_black,control,black,monitoring,1,8,1,CLICKED,934,"","",,,,674,5,ASSUMED_FRIEND,,403,191,1,UNKNOWN,1,1,UNKNOWN,403,191,0,1,FALSE,5,1,1,3,1,0,2,4,7,7,0,0,24
6,control_black,control,black,monitoring,1,9,1,CLICKED,900,"","",,,,853,6,ASSUMED_HOSTILE,,386,519,1,UNKNOWN,2,1,UNKNOWN,386,519,0,1,FALSE,6,1,2,3,1,0,3,4,7,6,0,0,24
6,control_black,control,black,monitoring,1,10,1,CLICKED,845,"","",,,,1519,1,UNKNOWN,,242,267,2,FRIEND,1,2,FRIEND,242,267,0,1,FALSE,1,2,1,3,1,0,2,5,7,6,0,0,24
6,control_black,control,black,monitoring,1,11,1,CLICKED,860,"","",,,,1191,5,ASSUMED_FRIEND,,303,230,4,HOSTILE,8,4,HOSTILE,303,230,0,1,FALSE,5,4,8,4,1,0,2,5,6,6,0,0,24
6,control_black,control,black,monitoring,1,12,1,CLICKED,1038,"","",,,,730,5,ASSUMED_FRIEND,,143,524,1,UNKNOWN,12,1,UNKNOWN,143,524,0,1,FALSE,5,1,12,4,1,0,3,5,5,6,0,0,24
6,control_black,control,black,monitoring,1,13,1,CLICKED,899,"","",,,,1499,5,ASSUMED_FRIEND,,439,372,4,HOSTILE,13,4,HOSTILE,439,372,0,1,FALSE,5,4,13,5,1,0,3,5,4,6,0,0,24
6,control_black,control,black,monitoring,1,14,0,TIMEOUT,,"","",,,,1166,2,FRIEND,,,,,,0,5,ASSUMED_FRIEND,509,397,0,1,FALSE,2,5,,5,1,0,3,4,5,6,0,0,24
6,control_black,control,black,monitoring,1,15,1,CLICKED,958,"","",,,,1469,3,NEUTRAL,,225,544,2,FRIEND,9,2,FRIEND,225,544,0,1,FALSE,3,2,9,5,0,0,3,5,5,6,0,0,24
6,control_black,control,black,monitoring,1,16,0,TIMEOUT,,"","",,,,1836,6,ASSUMED_HOSTILE,,,,,,4,1,UNKNOWN,640,603,0,1,FALSE,6,1,,5,0,0,4,5,5,5,0,0,24
6,control_black,control,black,monitoring,1,17,1,CLICKED,1438,"","",,,,1560,6,ASSUMED_HOSTILE,,552,448,2,FRIEND,19,2,FRIEND,552,448,0,1,FALSE,6,2,19,5,0,0,4,6,5,4,0,0,24
6,control_black,control,black,monitoring,1,18,0,CLICKED,226,"","",,,,1802,5,ASSUMED_FRIEND,,615,374,6,ASSUMED_HOSTILE,0,2,FRIEND,590,270,0,1,FALSE,5,2,21,5,0,0,4,7,4,4,0,0,24
6,control_black,control,black,monitoring,1,19,1,CLICKED,955,"","",,,,1199,2,FRIEND,,572,144,6,ASSUMED_HOSTILE,0,6,ASSUMED_HOSTILE,572,144,0,1,FALSE,2,6,0,5,0,0,4,6,4,5,0,0,24
6,control_black,control,black,monitoring,1,20,1,CLICKED,735,"","",,,,1487,5,ASSUMED_FRIEND,,489,342,6,ASSUMED_HOSTILE,14,6,ASSUMED_HOSTILE,489,342,0,1,FALSE,5,6,14,5,0,0,4,6,3,6,0,0,24
6,control_black,control,black,monitoring,1,21,0,TIMEOUT,,"","",,,,890,1,UNKNOWN,,,,,,2,4,HOSTILE,239,277,0,1,FALSE,1,4,,6,0,0,3,6,3,6,0,0,24
6,control_black,control,black,monitoring,1,22,0,TIMEOUT,,"","",,,,958,6,ASSUMED_HOSTILE,,,,,,0,4,HOSTILE,655,328,0,1,FALSE,6,4,,7,0,0,3,6,3,5,0,0,24
6,control_black,control,black,monitoring,1,23,1,CLICKED,1098,"","",,,,708,6,ASSUMED_HOSTILE,,556,199,5,ASSUMED_FRIEND,14,5,ASSUMED_FRIEND,556,199,0,1,FALSE,6,5,14,7,0,0,3,6,4,4,0,0,24
6,control_black,control,black,monitoring,1,24,1,CLICKED,1256,"","",,,,1968,1,UNKNOWN,,422,623,2,FRIEND,4,2,FRIEND,422,623,0,1,FALSE,1,2,4,7,0,0,2,7,4,4,0,0,24
6,control_black,control,black,monitoring,1,25,1,CLICKED,953,"","",,,,1059,5,ASSUMED_FRIEND,,399,298,4,HOSTILE,14,4,HOSTILE,399,298,0,1,FALSE,5,4,14,8,0,0,2,7,3,4,0,0,24
6,control_black,control,black,monitoring,1,26,1,CLICKED,1013,"","",,,,1277,5,ASSUMED_FRIEND,,690,537,4,HOSTILE,15,4,HOSTILE,690,537,0,1,FALSE,5,4,15,9,0,0,2,7,2,4,0,0,24
6,control_black,control,black,monitoring,1,27,1,CLICKED,696,"","",,,,1326,1,UNKNOWN,,464,456,5,ASSUMED_FRIEND,5,5,ASSUMED_FRIEND,464,456,0,1,FALSE,1,5,5,9,0,0,1,7,3,4,0,0,24
6,control_black,control,black,monitoring,1,28,1,CLICKED,548,"","",,,,797,2,FRIEND,,415,405,4,HOSTILE,1,4,HOSTILE,415,405,0,1,FALSE,2,4,1,10,0,0,1,6,3,4,0,0,24
6,control_black,control,black,monitoring,1,29,0,TIMEOUT,,"","",,,,1707,6,ASSUMED_HOSTILE,,,,,,20,4,HOSTILE,194,457,0,1,FALSE,6,4,,11,0,0,1,6,3,3,0,0,24
6,control_black,control,black,monitoring,1,30,1,CLICKED,650,"","",,,,1804,5,ASSUMED_FRIEND,,394,396,3,NEUTRAL,5,3,NEUTRAL,394,396,0,1,FALSE,5,3,5,11,1,0,1,6,2,3,0,0,24
6,control_black,control,black,monitoring,2,1,1,CLICKED,935,"","",,,,1468,6,ASSUMED_HOSTILE,,663,556,5,ASSUMED_FRIEND,18,5,ASSUMED_FRIEND,663,556,0,1,FALSE,6,5,18,2,2,0,6,2,7,5,0,0,24
6,control_black,control,black,monitoring,2,2,0,TIMEOUT,,"","",,,,1244,5,ASSUMED_FRIEND,,,,,,12,2,FRIEND,278,495,0,1,FALSE,5,2,,2,2,0,6,3,6,5,0,0,24
6,control_black,control,black,monitoring,2,3,1,CLICKED,1618,"","",,,,1137,1,UNKNOWN,,421,458,3,NEUTRAL,0,3,NEUTRAL,421,458,0,1,FALSE,1,3,0,2,3,0,5,3,6,5,0,0,24
6,control_black,control,black,monitoring,2,4,0,TIMEOUT,,"","",,,,884,4,HOSTILE,,,,,,10,6,ASSUMED_HOSTILE,544,478,0,1,FALSE,4,6,,1,3,0,5,3,6,6,0,0,24
6,control_black,control,black,monitoring,2,5,1,CLICKED,874,"","",,,,1785,5,ASSUMED_FRIEND,,237,346,3,NEUTRAL,13,3,NEUTRAL,237,346,0,1,FALSE,5,3,13,1,4,0,5,3,5,6,0,0,24
6,control_black,control,black,monitoring,2,6,0,TIMEOUT,,"","",,,,1139,5,ASSUMED_FRIEND,,,,,,14,2,FRIEND,400,555,0,1,FALSE,5,2,,1,4,0,5,4,4,6,0,0,24
6,control_black,control,black,monitoring,2,7,1,CLICKED,2764,"","",,,,1659,2,FRIEND,,133,201,3,NEUTRAL,6,3,NEUTRAL,133,201,0,1,FALSE,2,3,6,1,5,0,5,3,4,6,0,0,24
6,control_black,control,black,monitoring,2,8,1,CLICKED,937,"","",,,,1528,5,ASSUMED_FRIEND,,330,192,6,ASSUMED_HOSTILE,15,6,ASSUMED_HOSTILE,330,192,0,1,FALSE,5,6,15,1,5,0,5,3,3,7,0,0,24
6,control_black,control,black,monitoring,2,9,0,CLICKED,1533,"","",,,,829,6,ASSUMED_HOSTILE,,531,613,1,UNKNOWN,10,5,ASSUMED_FRIEND,617,576,0,1,FALSE,6,5,1,1,5,0,5,3,4,6,0,0,24
6,control_black,control,black,monitoring,2,10,0,TIMEOUT,,"","",,,,1885,6,ASSUMED_HOSTILE,,,,,,15,4,HOSTILE,170,305,0,1,FALSE,6,4,,2,5,0,5,3,4,5,0,0,24
6,control_black,control,black,monitoring,2,11,0,TIMEOUT,,"","",,,,937,5,ASSUMED_FRIEND,,,,,,10,1,UNKNOWN,704,645,0,1,FALSE,5,1,,2,5,0,6,3,3,5,0,0,24
6,control_black,control,black,monitoring,2,12,0,TIMEOUT,,"","",,,,560,3,NEUTRAL,,,,,,0,4,HOSTILE,472,195,0,1,FALSE,3,4,,3,4,0,6,3,3,5,0,0,24
6,control_black,control,black,monitoring,2,13,0,TIMEOUT,,"","",,,,1949,1,UNKNOWN,,,,,,1,5,ASSUMED_FRIEND,706,252,0,1,FALSE,1,5,,3,4,0,5,3,4,5,0,0,24
6,control_black,control,black,monitoring,2,14,0,TIMEOUT,,"","",,,,1416,1,UNKNOWN,,,,,,2,3,NEUTRAL,554,570,0,1,FALSE,1,3,,3,5,0,4,3,4,5,0,0,24
6,control_black,control,black,monitoring,2,15,0,TIMEOUT,,"","",,,,1828,1,UNKNOWN,,,,,,3,4,HOSTILE,230,324,0,1,FALSE,1,4,,4,5,0,3,3,4,5,0,0,24
6,control_black,control,black,monitoring,2,16,0,TIMEOUT,,"","",,,,1287,3,NEUTRAL,,,,,,2,1,UNKNOWN,287,650,0,1,FALSE,3,1,,4,4,0,4,3,4,5,0,0,24
6,control_black,control,black,monitoring,2,17,0,TIMEOUT,,"","",,,,1399,1,UNKNOWN,,,,,,2,6,ASSUMED_HOSTILE,289,602,0,1,FALSE,1,6,,4,4,0,3,3,4,6,0,0,24
6,control_black,control,black,monitoring,2,18,1,CLICKED,1326,"","",,,,1601,5,ASSUMED_FRIEND,,257,117,3,NEUTRAL,1,3,NEUTRAL,257,117,0,1,FALSE,5,3,1,4,5,0,3,3,3,6,0,0,24
6,control_black,control,black,monitoring,2,19,0,TIMEOUT,,"","",,,,1524,6,ASSUMED_HOSTILE,,,,,,2,3,NEUTRAL,210,730,0,1,FALSE,6,3,,4,6,0,3,3,3,5,0,0,24
6,control_black,control,black,monitoring,2,20,1,CLICKED,1098,"","",,,,1948,4,HOSTILE,,656,590,5,ASSUMED_FRIEND,0,5,ASSUMED_FRIEND,656,590,0,1,FALSE,4,5,0,3,6,0,3,3,4,5,0,0,24
6,control_black,control,black,monitoring,2,21,0,TIMEOUT,,"","",,,,565,5,ASSUMED_FRIEND,,,,,,0,6,ASSUMED_HOSTILE,585,618,0,1,FALSE,5,6,,3,6,0,3,3,3,6,0,0,24
6,control_black,control,black,monitoring,2,22,0,TIMEOUT,,"","",,,,1306,6,ASSUMED_HOSTILE,,,,,,0,4,HOSTILE,-1,377,0,1,FALSE,6,4,,4,6,0,3,3,3,5,0,0,24
6,control_black,control,black,monitoring,2,23,0,TIMEOUT,,"","",,,,960,6,ASSUMED_HOSTILE,,,,,,19,1,UNKNOWN,432,380,0,1,FALSE,6,1,,4,6,0,4,3,3,4,0,0,24
6,control_black,control,black,monitoring,2,24,0,TIMEOUT,,"","",,,,1279,6,ASSUMED_HOSTILE,,,,,,20,1,UNKNOWN,529,586,0,1,FALSE,6,1,,4,6,0,5,3,3,3,0,0,24
6,control_black,control,black,monitoring,2,25,0,TIMEOUT,,"","",,,,921,1,UNKNOWN,,,,,,4,4,HOSTILE,580,395,0,1,FALSE,1,4,,5,6,0,4,3,3,3,0,0,24
6,control_black,control,black,monitoring,2,26,0,CLICKED,4458,"","",,,,507,1,UNKNOWN,,477,404,6,ASSUMED_HOSTILE,5,5,ASSUMED_FRIEND,614,292,0,1,FALSE,1,5,23,5,6,0,3,3,4,3,0,0,24
6,control_black,control,black,monitoring,2,27,1,CLICKED,1006,"","",,,,1357,6,ASSUMED_HOSTILE,,542,571,2,FRIEND,21,2,FRIEND,542,571,0,1,FALSE,6,2,21,5,6,0,3,4,4,2,0,0,24
6,control_black,control,black,monitoring,2,28,1,CLICKED,948,"","",,,,1765,1,UNKNOWN,,323,464,2,FRIEND,10,2,FRIEND,323,464,0,1,FALSE,1,2,10,5,6,0,2,5,4,2,0,0,24
6,control_black,control,black,monitoring,2,29,1,CLICKED,831,"","",,,,999,5,ASSUMED_FRIEND,,403,416,4,HOSTILE,5,4,HOSTILE,403,416,0,1,FALSE,5,4,5,6,6,0,2,5,3,2,0,0,24
6,control_black,control,black,monitoring,2,30,1,CLICKED,1050,"","",,,,729,6,ASSUMED_HOSTILE,,341,521,3,NEUTRAL,22,3,NEUTRAL,341,521,0,1,FALSE,6,3,22,6,7,0,2,5,3,1,0,0,24
6,control_black,control,black,monitoring,3,1,0,TIMEOUT,,"","",,,,682,6,ASSUMED_HOSTILE,,,,,,18,3,NEUTRAL,217,289,0,1,FALSE,6,3,,2,3,0,6,2,6,5,0,0,24
6,control_black,control,black,monitoring,3,2,0,CLICKED,1301,"","",,,,1570,3,NEUTRAL,,532,251,1,UNKNOWN,8,6,ASSUMED_HOSTILE,103,595,0,1,FALSE,3,6,0,2,2,0,6,2,6,6,0,0,24
6,control_black,control,black,monitoring,3,3,0,CLICKED,1494,"","",,,,718,1,UNKNOWN,,358,355,4,HOSTILE,0,6,ASSUMED_HOSTILE,665,150,0,1,FALSE,1,6,11,2,2,0,5,2,6,7,0,0,24
6,control_black,control,black,monitoring,3,4,1,CLICKED,1004,"","",,,,799,6,ASSUMED_HOSTILE,,541,170,3,NEUTRAL,0,3,NEUTRAL,541,170,0,1,FALSE,6,3,0,2,3,0,5,2,6,6,0,0,24
6,control_black,control,black,monitoring,3,5,1,CLICKED,2662,"","",,,,1132,4,HOSTILE,,662,554,2,FRIEND,10,2,FRIEND,662,554,0,1,FALSE,4,2,10,1,3,0,5,3,6,6,0,0,24
6,control_black,control,black,monitoring,3,6,0,CLICKED,1716,"","",,,,1578,5,ASSUMED_FRIEND,,228,265,3,NEUTRAL,12,2,FRIEND,297,543,0,1,FALSE,5,2,9,1,3,0,5,4,5,6,0,0,24
6,control_black,control,black,monitoring,3,7,0,TIMEOUT,,"","",,,,787,1,UNKNOWN,,,,,,1,6,ASSUMED_HOSTILE,453,574,0,1,FALSE,1,6,,1,3,0,4,4,5,7,0,0,24
6,control_black,control,black,monitoring,3,8,0,TIMEOUT,,"","",,,,948,6,ASSUMED_HOSTILE,,,,,,1,3,NEUTRAL,604,556,0,1,FALSE,6,3,,1,4,0,4,4,5,6,0,0,24
6,control_black,control,black,monitoring,3,9,0,TIMEOUT,,"","",,,,918,1,UNKNOWN,,,,,,2,3,NEUTRAL,537,573,0,1,FALSE,1,3,,1,5,0,3,4,5,6,0,0,24
6,control_black,control,black,monitoring,3,10,1,CLICKED,2008,"","",,,,1244,1,UNKNOWN,,634,261,4,HOSTILE,3,4,HOSTILE,634,261,0,1,FALSE,1,4,3,2,5,0,2,4,5,6,0,0,24
6,control_black,control,black,monitoring,3,11,0,TIMEOUT,,"","",,,,782,6,ASSUMED_HOSTILE,,,,,,8,1,UNKNOWN,256,419,0,1,FALSE,6,1,,2,5,0,3,4,5,5,0,0,24
6,control_black,control,black,monitoring,3,12,1,CLICKED,2279,"","",,,,672,4,HOSTILE,,562,363,1,UNKNOWN,3,1,UNKNOWN,562,363,0,1,FALSE,4,1,3,1,5,0,4,4,5,5,0,0,24
6,control_black,control,black,monitoring,3,13,0,TIMEOUT,,"","",,,,1328,6,ASSUMED_HOSTILE,,,,,,19,4,HOSTILE,443,533,0,1,FALSE,6,4,,2,5,0,4,4,5,4,0,0,24
6,control_black,control,black,monitoring,3,14,1,CLICKED,1863,"","",,,,1064,5,ASSUMED_FRIEND,,284,548,1,UNKNOWN,13,1,UNKNOWN,284,548,0,1,FALSE,5,1,13,2,5,0,5,4,4,4,0,0,24
6,control_black,control,black,monitoring,3,15,1,CLICKED,1781,"","",,,,1689,6,ASSUMED_HOSTILE,,377,669,2,FRIEND,20,2,FRIEND,377,669,0,1,FALSE,6,2,20,2,5,0,5,5,4,3,0,0,24
6,control_black,control,black,monitoring,3,16,0,TIMEOUT,,"","",,,,1476,5,ASSUMED_FRIEND,,,,,,14,2,FRIEND,308,449,0,1,FALSE,5,2,,2,5,0,5,6,3,3,0,0,24
6,control_black,control,black,monitoring,3,17,1,CLICKED,2219,"","",,,,1481,5,ASSUMED_FRIEND,,387,157,6,ASSUMED_HOSTILE,15,6,ASSUMED_HOSTILE,387,157,0,1,FALSE,5,6,15,2,5,0,5,6,2,4,0,0,24
6,control_black,control,black,monitoring,3,18,0,TIMEOUT,,"","",,,,635,4,HOSTILE,,,,,,11,3,NEUTRAL,409,507,0,1,FALSE,4,3,,1,6,0,5,6,2,4,0,0,24
6,control_black,control,black,monitoring,3,19,0,TIMEOUT,,"","",,,,1067,1,UNKNOWN,,,,,,3,3,NEUTRAL,588,226,0,1,FALSE,1,3,,1,7,0,4,6,2,4,0,0,24
6,control_black,control,black,monitoring,3,20,1,CLICKED,1924,"","",,,,1490,6,ASSUMED_HOSTILE,,272,50,2,FRIEND,15,2,FRIEND,272,50,0,1,FALSE,6,2,15,1,7,0,4,7,2,3,0,0,24
6,control_black,control,black,monitoring,3,21,1,CLICKED,1650,"","",,,,1189,1,UNKNOWN,,715,253,5,ASSUMED_FRIEND,4,5,ASSUMED_FRIEND,715,253,0,1,FALSE,1,5,4,1,7,0,3,7,3,3,0,0,24
6,control_black,control,black,monitoring,3,22,1,CLICKED,1520,"","",,,,1437,2,FRIEND,,511,550,1,UNKNOWN,6,1,UNKNOWN,511,550,0,1,FALSE,2,1,6,1,7,0,4,6,3,3,0,0,24
6,control_black,control,black,monitoring,3,23,1,CLICKED,1467,"","",,,,708,5,ASSUMED_FRIEND,,714,232,6,ASSUMED_HOSTILE,4,6,ASSUMED_HOSTILE,714,232,0,1,FALSE,5,6,4,1,7,0,4,6,2,4,0,0,24
6,control_black,control,black,monitoring,3,24,1,CLICKED,1567,"","",,,,1721,6,ASSUMED_HOSTILE,,553,325,5,ASSUMED_FRIEND,4,5,ASSUMED_FRIEND,553,325,0,1,FALSE,6,5,4,1,7,0,4,6,3,3,0,0,24
6,control_black,control,black,monitoring,3,25,0,TIMEOUT,,"","",,,,1286,1,UNKNOWN,,,,,,5,3,NEUTRAL,14,474,0,1,FALSE,1,3,,1,8,0,3,6,3,3,0,0,24
6,control_black,control,black,monitoring,3,26,1,CLICKED,1848,"","",,,,824,5,ASSUMED_FRIEND,,629,488,3,NEUTRAL,4,3,NEUTRAL,629,488,0,1,FALSE,5,3,4,1,9,0,3,6,2,3,0,0,24
6,control_black,control,black,monitoring,3,27,1,CLICKED,1568,"","",,,,1868,6,ASSUMED_HOSTILE,,325,368,5,ASSUMED_FRIEND,21,5,ASSUMED_FRIEND,325,368,0,1,FALSE,6,5,21,1,9,0,3,6,3,2,0,0,24
6,control_black,control,black,monitoring,3,28,0,TIMEOUT,,"","",,,,1776,5,ASSUMED_FRIEND,,,,,,16,3,NEUTRAL,144,595,0,1,FALSE,5,3,,1,10,0,3,6,2,2,0,0,24
6,control_black,control,black,monitoring,3,29,1,CLICKED,2127,"","",,,,1082,5,ASSUMED_FRIEND,,270,518,1,UNKNOWN,17,1,UNKNOWN,270,518,0,1,FALSE,5,1,17,1,10,0,4,6,1,2,0,0,24
6,control_black,control,black,monitoring,3,30,1,CLICKED,1222,"","",,,,1936,1,UNKNOWN,,539,144,2,FRIEND,6,2,FRIEND,539,144,0,1,FALSE,1,2,6,1,10,0,3,7,1,2,0,0,24
7,control_black,control,black,categoryLearning,,1,1,CLICKED,4722,UNKNOWN,UNKNOWN,1,1,1,,,"",,,,,"",,,"",,,,,,,,,,,,,,,,,,
7,control_black,control,black,categoryLearning,,2,1,CLICKED,3631,NEUTRAL,NEUTRAL,3,3,1,,,"",,,,,"",,,"",,,,,,,,,,,,,,,,,,
7,control_black,control,black,categoryLearning,,3,1,CLICKED,978,FRIEND,FRIEND,2,2,1,,,"",,,,,"",,,"",,,,,,,,,,,,,,,,,,
7,control_black,control,black,categoryLearning,,4,1,CLICKED,555,HOSTILE,HOSTILE,4,4,1,,,"",,,,,"",,,"",,,,,,,,,,,,,,,,,,
7,control_black,control,black,categoryLearning,,5,1,CLICKED,998,UNKNOWN,UNKNOWN,1,1,1,,,"",,,,,"",,,"",,,,,,,,,,,,,,,,,,
7,control_black,control,black,categoryLearning,,6,1,CLICKED,1126,HOSTILE,HOSTILE,4,4,1,,,"",,,,,"",,,"",,,,,,,,,,,,,,,,,,
7,control_black,control,black,categoryLearning,,7,0,TIMEOUT,,NEUTRAL,,3,,1,,,"",,,,,"",,,"",,,,,,,,,,,,,,,,,,
7,control_black,control,black,categoryLearning,,8,1,CLICKED,1643,FRIEND,FRIEND,2,2,1,,,"",,,,,"",,,"",,,,,,,,,,,,,,,,,,
