id_participant,condition,uncertaintyCondition,backgroundCondition,experiment_phase,trial,correct,completed_by,reaction_time,category,category_selected,category_id,category_selected_id,trained,iti_trial,previous_category_id,previous_category,selected_id,current_position_entity_selected_x,current_position_entity_selected_y,selected_entity_category_id,selected_entity_category,changed_entity_id,changed_entity_category_id,changed_entity_category,current_position_entity_changed_x,current_position_entity_changed_y,first_round,second_round,no_change,from_category_id,to_category_id,selected_entity_id,HOSTILE_entities,NEUTRAL_entities,PENDING_entities,UNKNOWN_entities,FRIEND_entities,ASSUMED_FRIEND_entities,ASSUMED_HOSTILE_entities,UNCERTAIN_FRIEND_entities,UNCERTAIN_HOSTILE_entities,total_entities_second_round,round
2,control_black,control,black,categoryLearning,1,0,TIMEOUT,,NEUTRAL,,3,,1,,,"",,,,,"",,,"",,,,,,,,,,,,,,,,,,,
2,control_black,control,black,categoryLearning,2,1,CLICKED,2404,HOSTILE,HOSTILE,4,4,1,,,"",,,,,"",,,"",,,,,,,,,,,,,,,,,,,
2,control_black,control,black,categoryLearning,3,0,CLICKED,2066,UNKNOWN,NEUTRAL,1,3,1,,,"",,,,,"",,,"",,,,,,,,,,,,,,,,,,,
2,control_black,control,black,categoryLearning,4,0,CLICKED,2536,FRIEND,NEUTRAL,2,3,1,,,"",,,,,"",,,"",,,,,,,,,,,,,,,,,,,
2,control_black,control,black,categoryLearning,5,1,CLICKED,1604,HOSTILE,HOSTILE,4,4,1,,,"",,,,,"",,,"",,,,,,,,,,,,,,,,,,,
2,control_black,control,black,categoryLearning,6,0,CLICKED,1979,FRIEND,UNKNOWN,2,1,1,,,"",,,,,"",,,"",,,,,,,,,,,,,,,,,,,
2,control_black,control,black,categoryLearning,7,0,CLICKED,1830,NEUTRAL,FRIEND,3,2,1,,,"",,,,,"",,,"",,,,,,,,,,,,,,,,,,,
2,control_black,control,black,categoryLearning,8,0,CLICKED,3236,UNKNOWN,NEUTRAL,1,3,1,,,"",,,,,"",,,"",,,,,,,,,,,,,,,,,,,
2,control_black,control,black,categoryLearning,9,1,CLICKED,1772,UNKNOWN,UNKNOWN,1,1,1,,,"",,,,,"",,,"",,,,,,,,,,,,,,,,,,,
2,control_black,control,black,categoryLearning,10,1,CLICKED,1463,HOSTILE,HOSTILE,4,4,1,,,"",,,,,"",,,"",,,,,,,,,,,,,,,,,,,
2,control_black,control,black,categoryLearning,11,1,CLICKED,1394,FRIEND,FRIEND,2,2,1,,,"",,,,,"",,,"",,,,,,,,,,,,,,,,,,,
2,control_black,control,black,categoryLearning,12,1,CLICKED,1310,NEUTRAL,NEUTRAL,3,3,1,,,"",,,,,"",,,"",,,,,,,,,,,,,,,,,,,
2,control_black,control,black,categoryLearning,13,1,CLICKED,2057,FRIEND,FRIEND,2,2,1,,,"",,,,,"",,,"",,,,,,,,,,,,,,,,,,,
2,control_black,control,black,categoryLearning,14,1,CLICKED,1591,HOSTILE,HOSTILE,4,4,1,,,"",,,,,"",,,"",,,,,,,,,,,,,,,,,,,
2,control_black,control,black,categoryLearning,15,1,CLICKED,2207,NEUTRAL,NEUTRAL,3,3,1,,,"",,,,,"",,,"",,,,,,,,,,,,,,,,,,,
2,control_black,control,black,categoryLearning,16,1,CLICKED,1458,UNKNOWN,UNKNOWN,1,1,1,,,"",,,,,"",,,"",,,,,,,,,,,,,,,,,,,
3,control_black,control,black,categoryLearning,1,0,TIMEOUT,,HOSTILE,,4,,1,,,"",,,,,"",,,"",,,,,,,,,,,,,,,,,,,
3,control_black,control,black,categoryLearning,2,1,CLICKED,2625,FRIEND,FRIEND,2,2,1,,,"",,,,,"",,,"",,,,,,,,,,,,,,,,,,,
3,control_black,control,black,categoryLearning,3,0,CLICKED,1428,UNKNOWN,NEUTRAL,1,3,1,,,"",,,,,"",,,"",,,,,,,,,,,,,,,,,,,
3,control_black,control,black,categoryLearning,4,1,CLICKED,1197,NEUTRAL,NEUTRAL,3,3,1,,,"",,,,,"",,,"",,,,,,,,,,,,,,,,,,,
3,control_black,control,black,categoryLearning,5,1,CLICKED,956,NEUTRAL,NEUTRAL,3,3,1,,,"",,,,,"",,,"",,,,,,,,,,,,,,,,,,,
3,control_black,control,black,categoryLearning,6,1,CLICKED,1004,HOSTILE,HOSTILE,4,4,1,,,"",,,,,"",,,"",,,,,,,,,,,,,,,,,,,
3,control_black,control,black,categoryLearning,7,0,CLICKED,1393,FRIEND,UNKNOWN,2,1,1,,,"",,,,,"",,,"",,,,,,,,,,,,,,,,,,,
3,control_black,control,black,categoryLearning,8,1,CLICKED,1297,UNKNOWN,UNKNOWN,1,1,1,,,"",,,,,"",,,"",,,,,,,,,,,,,,,,,,,
3,control_black,control,black,categoryLearning,9,1,CLICKED,1052,UNKNOWN,UNKNOWN,1,1,1,,,"",,,,,"",,,"",,,,,,,,,,,,,,,,,,,
3,control_black,control,black,categoryLearning,10,1,CLICKED,937,HOSTILE,HOSTILE,4,4,1,,,"",,,,,"",,,"",,,,,,,,,,,,,,,,,,,
3,control_black,control,black,categoryLearning,11,1,CLICKED,1045,FRIEND,FRIEND,2,2,1,,,"",,,,,"",,,"",,,,,,,,,,,,,,,,,,,
4,categorical_black,categorical,black,categoryLearning,1,0,CLICKED,1531,ASSUMED_HOSTILE,UNKNOWN,6,1,1,,,"",,,,,"",,,"",,,,,,,,,,,,,,,,,,,
4,categorical_black,categorical,black,categoryLearning,2,0,TIMEOUT,,FRIEND,,2,,1,,,"",,,,,"",,,"",,,,,,,,,,,,,,,,,,,
4,categorical_black,categorical,black,categoryLearning,3,1,CLICKED,2946,ASSUMED_FRIEND,ASSUMED_FRIEND,5,5,1,,,"",,,,,"",,,"",,,,,,,,,,,,,,,,,,,
4,categorical_black,categorical,black,categoryLearning,4,0,CLICKED,1960,HOSTILE,FRIEND,4,2,1,,,"",,,,,"",,,"",,,,,,,,,,,,,,,,,,,
4,categorical_black,categorical,black,categoryLearning,5,1,CLICKED,1942,NEUTRAL,NEUTRAL,3,3,1,,,"",,,,,"",,,"",,,,,,,,,,,,,,,,,,,
4,categorical_black,categorical,black,categoryLearning,6,1,CLICKED,1810,UNKNOWN,UNKNOWN,1,1,1,,,"",,,,,"",,,"",,,,,,,,,,,,,,,,,,,
4,categorical_black,categorical,black,categoryLearning,7,0,CLICKED,1896,FRIEND,HOSTILE,2,4,1,,,"",,,,,"",,,"",,,,,,,,,,,,,,,,,,,
4,categorical_black,categorical,black,categoryLearning,8,0,CLICKED,1686,UNKNOWN,NEUTRAL,1,3,1,,,"",,,,,"",,,"",,,,,,,,,,,,,,,,,,,
4,categorical_black,categorical,black,categoryLearning,9,0,CLICKED,2248,ASSUMED_HOSTILE,ASSUMED_FRIEND,6,5,1,,,"",,,,,"",,,"",,,,,,,,,,,,,,,,,,,
4,categorical_black,categorical,black,categoryLearning,10,1,CLICKED,2146,NEUTRAL,NEUTRAL,3,3,1,,,"",,,,,"",,,"",,,,,,,,,,,,,,,,,,,
4,categorical_black,categorical,black,categoryLearning,11,0,CLICKED,3305,ASSUMED_FRIEND,FRIEND,5,2,1,,,"",,,,,"",,,"",,,,,,,,,,,,,,,,,,,
4,categorical_black,categorical,black,categoryLearning,12,0,CLICKED,3044,HOSTILE,ASSUMED_FRIEND,4,5,1,,,"",,,,,"",,,"",,,,,,,,,,,,,,,,,,,
4,categorical_black,categorical,black,categoryLearning,13,1,CLICKED,1651,NEUTRAL,NEUTRAL,3,3,1,,,"",,,,,"",,,"",,,,,,,,,,,,,,,,,,,
4,categorical_black,categorical,black,categoryLearning,14,1,CLICKED,1839,UNKNOWN,UNKNOWN,1,1,1,,,"",,,,,"",,,"",,,,,,,,,,,,,,,,,,,
4,categorical_black,categorical,black,categoryLearning,15,1,CLICKED,4988,ASSUMED_FRIEND,ASSUMED_FRIEND,5,5,1,,,"",,,,,"",,,"",,,,,,,,,,,,,,,,,,,
4,categorical_black,categorical,black,categoryLearning,16,1,CLICKED,1998,HOSTILE,HOSTILE,4,4,1,,,"",,,,,"",,,"",,,,,,,,,,,,,,,,,,,
4,categorical_black,categorical,black,categoryLearning,17,1,CLICKED,2401,FRIEND,FRIEND,2,2,1,,,"",,,,,"",,,"",,,,,,,,,,,,,,,,,,,
4,categorical_black,categorical,black,categoryLearning,18,1,CLICKED,1787,ASSUMED_HOSTILE,ASSUMED_HOSTILE,6,6,1,,,"",,,,,"",,,"",,,,,,,,,,,,,,,,,,,
4,categorical_black,categorical,black,categoryLearning,19,0,TIMEOUT,,ASSUMED_HOSTILE,,6,,1,,,"",,,,,"",,,"",,,,,,,,,,,,,,,,,,,
4,categorical_black,categorical,black,categoryLearning,20,1,CLICKED,1956,FRIEND,FRIEND,2,2,1,,,"",,,,,"",,,"",,,,,,,,,,,,,,,,,,,
4,categorical_black,categorical,black,categoryLearning,21,1,CLICKED,2080,NEUTRAL,NEUTRAL,3,3,1,,,"",,,,,"",,,"",,,,,,,,,,,,,,,,,,,
5,categorical_black,categorical,black,categoryLearning,1,0,TIMEOUT,,ASSUMED_HOSTILE,,6,,1,,,"",,,,,"",,,"",,,,,,,,,,,,,,,,,,,
5,categorical_black,categorical,black,categoryLearning,2,1,CLICKED,4469,HOSTILE,HOSTILE,4,4,1,,,"",,,,,"",,,"",,,,,,,,,,,,,,,,,,,
5,categorical_black,categorical,black,categoryLearning,3,0,CLICKED,2652,ASSUMED_FRIEND,ASSUMED_HOSTILE,5,6,1,,,"",,,,,"",,,"",,,,,,,,,,,,,,,,,,,
5,categorical_black,categorical,black,categoryLearning,4,1,CLICKED,2527,FRIEND,FRIEND,2,2,1,,,"",,,,,"",,,"",,,,,,,,,,,,,,,,,,,
5,categorical_black,categorical,black,categoryLearning,5,0,CLICKED,1943,UNKNOWN,NEUTRAL,1,3,1,,,"",,,,,"",,,"",,,,,,,,,,,,,,,,,,,
5,categorical_black,categorical,black,categoryLearning,6,0,CLICKED,2368,NEUTRAL,ASSUMED_HOSTILE,3,6,1,,,"",,,,,"",,,"",,,,,,,,,,,,,,,,,,,
5,categorical_black,categorical,black,categoryLearning,7,1,CLICKED,2605,ASSUMED_HOSTILE,ASSUMED_HOSTILE,6,6,1,,,"",,,,,"",,,"",,,,,,,,,,,,,,,,,,,
5,categorical_black,categorical,black,categoryLearning,8,1,CLICKED,1692,HOSTILE,HOSTILE,4,4,1,,,"",,,,,"",,,"",,,,,,,,,,,,,,,,,,,
5,categorical_black,categorical,black,categoryLearning,9,0,CLICKED,3810,ASSUMED_FRIEND,ASSUMED_HOSTILE,5,6,1,,,"",,,,,"",,,"",,,,,,,,,,,,,,,,,,,
5,categorical_black,categorical,black,categoryLearning,10,0,CLICKED,1745,UNKNOWN,NEUTRAL,1,3,1,,,"",,,,,"",,,"",,,,,,,,,,,,,,,,,,,
5,categorical_black,categorical,black,categoryLearning,11,0,CLICKED,2638,NEUTRAL,FRIEND,3,2,1,,,"",,,,,"",,,"",,,,,,,,,,,,,,,,,,,
5,categorical_black,categorical,black,categoryLearning,12,0,CLICKED,2949,FRIEND,ASSUMED_FRIEND,2,5,1,,,"",,,,,"",,,"",,,,,,,,,,,,,,,,,,,
5,categorical_black,categorical,black,categoryLearning,13,1,CLICKED,1433,HOSTILE,HOSTILE,4,4,1,,,"",,,,,"",,,"",,,,,,,,,,,,,,,,,,,
5,categorical_black,categorical,black,categoryLearning,14,0,TIMEOUT,,UNKNOWN,,1,,1,,,"",,,,,"",,,"",,,,,,,,,,,,,,,,,,,
5,categorical_black,categorical,black,categoryLearning,15,0,CLICKED,4444,NEUTRAL,ASSUMED_FRIEND,3,5,1,,,"",,,,,"",,,"",,,,,,,,,,,,,,,,,,,
5,categorical_black,categorical,black,categoryLearning,16,0,CLICKED,2815,ASSUMED_HOSTILE,ASSUMED_FRIEND,6,5,1,,,"",,,,,"",,,"",,,,,,,,,,,,,,,,,,,
5,categorical_black,categorical,black,categoryLearning,17,0,CLICKED,4773,ASSUMED_FRIEND,FRIEND,5,2,1,,,"",,,,,"",,,"",,,,,,,,,,,,,,,,,,,
5,categorical_black,categorical,black,categoryLearning,18,0,CLICKED,4983,FRIEND,ASSUMED_FRIEND,2,5,1,,,"",,,,,"",,,"",,,,,,,,,,,,,,,,,,,
5,categorical_black,categorical,black,categoryLearning,19,0,CLICKED,3084,FRIEND,ASSUMED_FRIEND,2,5,1,,,"",,,,,"",,,"",,,,,,,,,,,,,,,,,,,
5,categorical_black,categorical,black,categoryLearning,20,1,CLICKED,2651,UNKNOWN,UNKNOWN,1,1,1,,,"",,,,,"",,,"",,,,,,,,,,,,,,,,,,,
5,categorical_black,categorical,black,categoryLearning,21,0,CLICKED,3616,NEUTRAL,FRIEND,3,2,1,,,"",,,,,"",,,"",,,,,,,,,,,,,,,,,,,
5,categorical_black,categorical,black,categoryLearning,22,0,CLICKED,3515,ASSUMED_HOSTILE,ASSUMED_FRIEND,6,5,1,,,"",,,,,"",,,"",,,,,,,,,,,,,,,,,,,
5,categorical_black,categorical,black,categoryLearning,23,1,CLICKED,1325,HOSTILE,HOSTILE,4,4,1,,,"",,,,,"",,,"",,,,,,,,,,,,,,,,,,,
5,categorical_black,categorical,black,categoryLearning,24,1,CLICKED,2503,ASSUMED_FRIEND,ASSUMED_FRIEND,5,5,1,,,"",,,,,"",,,"",,,,,,,,,,,,,,,,,,,
5,categorical_black,categorical,black,categoryLearning,25,1,CLICKED,1564,UNKNOWN,UNKNOWN,1,1,1,,,"",,,,,"",,,"",,,,,,,,,,,,,,,,,,,
5,categorical_black,categorical,black,categoryLearning,26,1,CLICKED,1318,HOSTILE,HOSTILE,4,4,1,,,"",,,,,"",,,"",,,,,,,,,,,,,,,,,,,
5,categorical_black,categorical,black,categoryLearning,27,1,CLICKED,3116,ASSUMED_FRIEND,ASSUMED_FRIEND,5,5,1,,,"",,,,,"",,,"",,,,,,,,,,,,,,,,,,,
5,categorical_black,categorical,black,categoryLearning,28,0,CLICKED,2504,FRIEND,NEUTRAL,2,3,1,,,"",,,,,"",,,"",,,,,,,,,,,,,,,,,,,
5,categorical_black,categorical,black,categoryLearning,29,0,CLICKED,2165,NEUTRAL,ASSUMED_HOSTILE,3,6,1,,,"",,,,,"",,,"",,,,,,,,,,,,,,,,,,,
5,categorical_black,categorical,black,categoryLearning,30,0,CLICKED,2577,ASSUMED_HOSTILE,ASSUMED_FRIEND,6,5,1,,,"",,,,,"",,,"",,,,,,,,,,,,,,,,,,,
5,categorical_black,categorical,black,categoryLearning,31,1,CLICKED,2843,FRIEND,FRIEND,2,2,1,,,"",,,,,"",,,"",,,,,,,,,,,,,,,,,,,
5,categorical_black,categorical,black,categoryLearning,32,1,CLICKED,2669,ASSUMED_FRIEND,ASSUMED_FRIEND,5,5,1,,,"",,,,,"",,,"",,,,,,,,,,,,,,,,,,,
5,categorical_black,categorical,black,categoryLearning,33,1,CLICKED,2613,NEUTRAL,NEUTRAL,3,3,1,,,"",,,,,"",,,"",,,,,,,,,,,,,,,,,,,
5,categorical_black,categorical,black,categoryLearning,34,1,CLICKED,1124,HOSTILE,HOSTILE,4,4,1,,,"",,,,,"",,,"",,,,,,,,,,,,,,,,,,,
5,categorical_black,categorical,black,categoryLearning,35,1,CLICKED,1647,ASSUMED_HOSTILE,ASSUMED_HOSTILE,6,6,1,,,"",,,,,"",,,"",,,,,,,,,,,,,,,,,,,
5,categorical_black,categorical,black,categoryLearning,36,1,CLICKED,1942,UNKNOWN,UNKNOWN,1,1,1,,,"",,,,,"",,,"",,,,,,,,,,,,,,,,,,,
5,categorical_black,categorical,black,categoryLearning,37,0,CLICKED,3977,NEUTRAL,FRIEND,3,2,1,,,"",,,,,"",,,"",,,,,,,,,,,,,,,,,,,
5,categorical_black,categorical,black,categoryLearning,38,1,CLICKED,1206,HOSTILE,HOSTILE,4,4,1,,,"",,,,,"",,,"",,,,,,,,,,,,,,,,,,,
5,categorical_black,categorical,black,categoryLearning,39,1,CLICKED,3584,ASSUMED_FRIEND,ASSUMED_FRIEND,5,5,1,,,"",,,,,"",,,"",,,,,,,,,,,,,,,,,,,
6,uncertainty_black,uncertainty,black,categoryLearning,1,0,CLICKED,3385,ASSUMED_HOSTILE,HOSTILE,6,4,1,,,"",,,,,"",,,"",,,,,,,,,,,,,,,,,,,
6,uncertainty_black,uncertainty,black,categoryLearning,2,1,CLICKED,2377,ASSUMED_FRIEND,ASSUMED_FRIEND,5,5,1,,,"",,,,,"",,,"",,,,,,,,,,,,,,,,,,,
6,uncertainty_black,uncertainty,black,categoryLearning,3,1,CLICKED,2598,UNKNOWN,UNKNOWN,1,1,1,,,"",,,,,"",,,"",,,,,,,,,,,,,,,,,,,
6,uncertainty_black,uncertainty,black,categoryLearning,4,1,CLICKED,2075,FRIEND,FRIEND,2,2,1,,,"",,,,,"",,,"",,,,,,,,,,,,,,,,,,,
6,uncertainty_black,uncertainty,black,categoryLearning,5,0,TIMEOUT,,NEUTRAL,,3,,1,,,"",,,,,"",,,"",,,,,,,,,,,,,,,,,,,
6,uncertainty_black,uncertainty,black,categoryLearning,6,1,CLICKED,1288,HOSTILE,HOSTILE,4,4,1,,,"",,,,,"",,,"",,,,,,,,,,,,,,,,,,,
6,uncertainty_black,uncertainty,black,categoryLearning,7,1,CLICKED,1064,UNKNOWN,UNKNOWN,1,1,1,,,"",,,,,"",,,"",,,,,,,,,,,,,,,,,,,
6,uncertainty_black,uncertainty,black,categoryLearning,8,1,CLICKED,1373,FRIEND,FRIEND,2,2,1,,,"",,,,,"",,,"",,,,,,,,,,,,,,,,,,,
6,uncertainty_black,uncertainty,black,categoryLearning,9,1,CLICKED,2703,ASSUMED_HOSTILE,ASSUMED_HOSTILE,6,6,1,,,"",,,,,"",,,"",,,,,,,,,,,,,,,,,,,
6,uncertainty_black,uncertainty,black,categoryLearning,10,1,CLICKED,1059,NEUTRAL,NEUTRAL,3,3,1,,,"",,,,,"",,,"",,,,,,,,,,,,,,,,,,,
7,uncertainty_black,uncertainty,black,categoryLearning,1,1,CLICKED,3268,FRIEND,FRIEND,2,2,1,,,"",,,,,"",,,"",,,,,,,,,,,,,,,,,,,
7,uncertainty_black,uncertainty,black,categoryLearning,2,1,CLICKED,1913,ASSUMED_FRIEND,ASSUMED_FRIEND,5,5,1,,,"",,,,,"",,,"",,,,,,,,,,,,,,,,,,,
7,uncertainty_black,uncertainty,black,categoryLearning,3,0,CLICKED,1858,UNKNOWN,NEUTRAL,1,3,1,,,"",,,,,"",,,"",,,,,,,,,,,,,,,,,,,
7,uncertainty_black,uncertainty,black,categoryLearning,4,1,CLICKED,1629,ASSUMED_HOSTILE,ASSUMED_HOSTILE,6,6,1,,,"",,,,,"",,,"",,,,,,,,,,,,,,,,,,,
7,uncertainty_black,uncertainty,black,categoryLearning,5,1,CLICKED,1095,HOSTILE,HOSTILE,4,4,1,,,"",,,,,"",,,"",,,,,,,,,,,,,,,,,,,
7,uncertainty_black,uncertainty,black,categoryLearning,6,1,CLICKED,2238,NEUTRAL,NEUTRAL,3,3,1,,,"",,,,,"",,,"",,,,,,,,,,,,,,,,,,,
7,uncertainty_black,uncertainty,black,categoryLearning,7,1,CLICKED,954,NEUTRAL,NEUTRAL,3,3,1,,,"",,,,,"",,,"",,,,,,,,,,,,,,,,,,,
7,uncertainty_black,uncertainty,black,categoryLearning,8,1,CLICKED,1155,ASSUMED_HOSTILE,ASSUMED_HOSTILE,6,6,1,,,"",,,,,"",,,"",,,,,,,,,,,,,,,,,,,
7,uncertainty_black,uncertainty,black,categoryLearning,9,1,CLICKED,983,UNKNOWN,UNKNOWN,1,1,1,,,"",,,,,"",,,"",,,,,,,,,,,,,,,,,,,
7,uncertainty_black,uncertainty,black,categoryLearning,10,1,CLICKED,1377,ASSUMED_FRIEND,ASSUMED_FRIEND,5,5,1,,,"",,,,,"",,,"",,,,,,,,,,,,,,,,,,,
8,control_radar,control,radar,categoryLearning,1,0,CLICKED,4338,FRIEND,NEUTRAL,2,3,1,,,"",,,,,"",,,"",,,,,,,,,,,,,,,,,,,
8,control_radar,control,radar,categoryLearning,2,1,CLICKED,2407,NEUTRAL,NEUTRAL,3,3,1,,,"",,,,,"",,,"",,,,,,,,,,,,,,,,,,,
8,control_radar,control,radar,categoryLearning,3,1,CLICKED,2477,UNKNOWN,UNKNOWN,1,1,1,,,"",,,,,"",,,"",,,,,,,,,,,,,,,,,,,
8,control_radar,control,radar,categoryLearning,4,1,CLICKED,2121,HOSTILE,HOSTILE,4,4,1,,,"",,,,,"",,,"",,,,,,,,,,,,,,,,,,,
8,control_radar,control,radar,categoryLearning,5,1,CLICKED,2262,UNKNOWN,UNKNOWN,1,1,1,,,"",,,,,"",,,"",,,,,,,,,,,,,,,,,,,
8,control_radar,control,radar,categoryLearning,6,1,CLICKED,1790,FRIEND,FRIEND,2,2,1,,,"",,,,,"",,,"",,,,,,,,,,,,,,,,,,,
8,control_radar,control,radar,categoryLearning,7,1,CLICKED,2028,HOSTILE,HOSTILE,4,4,1,,,"",,,,,"",,,"",,,,,,,,,,,,,,,,,,,
8,control_radar,control,radar,categoryLearning,8,1,CLICKED,1789,NEUTRAL,NEUTRAL,3,3,1,,,"",,,,,"",,,"",,,,,,,,,,,,,,,,,,,
8,control_radar,control,radar,categoryLearning,9,1,CLICKED,1424,NEUTRAL,NEUTRAL,3,3,1,,,"",,,,,"",,,"",,,,,,,,,,,,,,,,,,,
8,control_radar,control,radar,categoryLearning,10,1,CLICKED,1996,HOSTILE,HOSTILE,4,4,1,,,"",,,,,"",,,"",,,,,,,,,,,,,,,,,,,
9,control_radar,control,radar,categoryLearning,1,0,TIMEOUT,,FRIEND,,2,,1,,,"",,,,,"",,,"",,,,,,,,,,,,,,,,,,,
9,control_radar,control,radar,categoryLearning,2,1,CLICKED,2810,HOSTILE,HOSTILE,4,4,1,,,"",,,,,"",,,"",,,,,,,,,,,,,,,,,,,
9,control_radar,control,radar,categoryLearning,3,0,CLICKED,2986,NEUTRAL,UNKNOWN,3,1,1,,,"",,,,,"",,,"",,,,,,,,,,,,,,,,,,,
9,control_radar,control,radar,categoryLearning,4,1,CLICKED,2484,UNKNOWN,UNKNOWN,1,1,1,,,"",,,,,"",,,"",,,,,,,,,,,,,,,,,,,
9,control_radar,control,radar,categoryLearning,5,1,CLICKED,946,UNKNOWN,UNKNOWN,1,1,1,,,"",,,,,"",,,"",,,,,,,,,,,,,,,,,,,
9,control_radar,control,radar,categoryLearning,6,1,CLICKED,1304,HOSTILE,HOSTILE,4,4,1,,,"",,,,,"",,,"",,,,,,,,,,,,,,,,,,,
9,control_radar,control,radar,categoryLearning,7,1,CLICKED,1342,FRIEND,FRIEND,2,2,1,,,"",,,,,"",,,"",,,,,,,,,,,,,,,,,,,
9,control_radar,control,radar,categoryLearning,8,1,CLICKED,1884,NEUTRAL,NEUTRAL,3,3,1,,,"",,,,,"",,,"",,,,,,,,,,,,,,,,,,,
9,control_radar,control,radar,categoryLearning,9,1,CLICKED,1186,UNKNOWN,UNKNOWN,1,1,1,,,"",,,,,"",,,"",,,,,,,,,,,,,,,,,,,
9,control_radar,control,radar,categoryLearning,10,1,CLICKED,1252,FRIEND,FRIEND,2,2,1,,,"",,,,,"",,,"",,,,,,,,,,,,,,,,,,,
10,categorical_radar,categorical,radar,categoryLearning,1,0,TIMEOUT,,ASSUMED_FRIEND,,5,,1,,,"",,,,,"",,,"",,,,,,,,,,,,,,,,,,,
10,categorical_radar,categorical,radar,categoryLearning,2,1,CLICKED,2176,HOSTILE,HOSTILE,4,4,1,,,"",,,,,"",,,"",,,,,,,,,,,,,,,,,,,
10,categorical_radar,categorical,radar,categoryLearning,3,1,CLICKED,2502,FRIEND,FRIEND,2,2,1,,,"",,,,,"",,,"",,,,,,,,,,,,,,,,,,,
10,categorical_radar,categorical,radar,categoryLearning,4,0,CLICKED,1775,ASSUMED_HOSTILE,NEUTRAL,6,3,1,,,"",,,,,"",,,"",,,,,,,,,,,,,,,,,,,
10,categorical_radar,categorical,radar,categoryLearning,5,0,CLICKED,1872,UNKNOWN,NEUTRAL,1,3,1,,,"",,,,,"",,,"",,,,,,,,,,,,,,,,,,,
10,categorical_radar,categorical,radar,categoryLearning,6,0,CLICKED,2753,NEUTRAL,ASSUMED_FRIEND,3,5,1,,,"",,,,,"",,,"",,,,,,,,,,,,,,,,,,,
10,categorical_radar,categorical,radar,categoryLearning,7,0,CLICKED,2200,ASSUMED_FRIEND,ASSUMED_HOSTILE,5,6,1,,,"",,,,,"",,,"",,,,,,,,,,,,,,,,,,,
10,categorical_radar,categorical,radar,categoryLearning,8,0,CLICKED,2824,NEUTRAL,ASSUMED_FRIEND,3,5,1,,,"",,,,,"",,,"",,,,,,,,,,,,,,,,,,,
10,categorical_radar,categorical,radar,categoryLearning,9,1,CLICKED,2674,UNKNOWN,UNKNOWN,1,1,1,,,"",,,,,"",,,"",,,,,,,,,,,,,,,,,,,
10,categorical_radar,categorical,radar,categoryLearning,10,1,CLICKED,1235,HOSTILE,HOSTILE,4,4,1,,,"",,,,,"",,,"",,,,,,,,,,,,,,,,,,,
10,categorical_radar,categorical,radar,categoryLearning,11,1,CLICKED,1288,FRIEND,FRIEND,2,2,1,,,"",,,,,"",,,"",,,,,,,,,,,,,,,,,,,
10,categorical_radar,categorical,radar,categoryLearning,12,1,CLICKED,3530,ASSUMED_HOSTILE,ASSUMED_HOSTILE,6,6,1,,,"",,,,,"",,,"",,,,,,,,,,,,,,,,,,,
10,categorical_radar,categorical,radar,categoryLearning,13,1,CLICKED,1347,ASSUMED_HOSTILE,ASSUMED_HOSTILE,6,6,1,,,"",,,,,"",,,"",,,,,,,,,,,,,,,,,,,
10,categorical_radar,categorical,radar,categoryLearning,14,0,CLICKED,2435,NEUTRAL,ASSUMED_FRIEND,3,5,1,,,"",,,,,"",,,"",,,,,,,,,,,,,,,,,,,
10,categorical_radar,categorical,radar,categoryLearning,15,1,CLICKED,1981,UNKNOWN,UNKNOWN,1,1,1,,,"",,,,,"",,,"",,,,,,,,,,,,,,,,,,,
10,categorical_radar,categorical,radar,categoryLearning,16,1,CLICKED,1466,HOSTILE,HOSTILE,4,4,1,,,"",,,,,"",,,"",,,,,,,,,,,,,,,,,,,
10,categorical_radar,categorical,radar,categoryLearning,17,1,CLICKED,1206,FRIEND,FRIEND,2,2,1,,,"",,,,,"",,,"",,,,,,,,,,,,,,,,,,,
11,categorical_radar,categorical,radar,categoryLearning,1,0,TIMEOUT,,UNKNOWN,,1,,1,,,"",,,,,"",,,"",,,,,,,,,,,,,,,,,,,
11,categorical_radar,categorical,radar,categoryLearning,2,1,CLICKED,2588,ASSUMED_HOSTILE,ASSUMED_HOSTILE,6,6,1,,,"",,,,,"",,,"",,,,,,,,,,,,,,,,,,,
11,categorical_radar,categorical,radar,categoryLearning,3,1,CLICKED,2380,HOSTILE,HOSTILE,4,4,1,,,"",,,,,"",,,"",,,,,,,,,,,,,,,,,,,
11,categorical_radar,categorical,radar,categoryLearning,4,0,CLICKED,3646,ASSUMED_FRIEND,UNKNOWN,5,1,1,,,"",,,,,"",,,"",,,,,,,,,,,,,,,,,,,
11,categorical_radar,categorical,radar,categoryLearning,5,1,CLICKED,1598,NEUTRAL,NEUTRAL,3,3,1,,,"",,,,,"",,,"",,,,,,,,,,,,,,,,,,,
11,categorical_radar,categorical,radar,categoryLearning,6,1,CLICKED,1244,FRIEND,FRIEND,2,2,1,,,"",,,,,"",,,"",,,,,,,,,,,,,,,,,,,
11,categorical_radar,categorical,radar,categoryLearning,7,0,CLICKED,2429,ASSUMED_HOSTILE,UNKNOWN,6,1,1,,,"",,,,,"",,,"",,,,,,,,,,,,,,,,,,,
11,categorical_radar,categorical,radar,categoryLearning,8,0,CLICKED,2405,UNKNOWN,NEUTRAL,1,3,1,,,"",,,,,"",,,"",,,,,,,,,,,,,,,,,,,
11,categorical_radar,categorical,radar,categoryLearning,9,1,CLICKED,1747,HOSTILE,HOSTILE,4,4,1,,,"",,,,,"",,,"",,,,,,,,,,,,,,,,,,,
11,categorical_radar,categorical,radar,categoryLearning,10,1,CLICKED,1253,FRIEND,FRIEND,2,2,1,,,"",,,,,"",,,"",,,,,,,,,,,,,,,,,,,
11,categorical_radar,categorical,radar,categoryLearning,11,1,CLICKED,4382,NEUTRAL,NEUTRAL,3,3,1,,,"",,,,,"",,,"",,,,,,,,,,,,,,,,,,,
11,categorical_radar,categorical,radar,categoryLearning,12,1,CLICKED,2977,ASSUMED_FRIEND,ASSUMED_FRIEND,5,5,1,,,"",,,,,"",,,"",,,,,,,,,,,,,,,,,,,
11,categorical_radar,categorical,radar,categoryLearning,13,1,CLICKED,959,ASSUMED_FRIEND,ASSUMED_FRIEND,5,5,1,,,"",,,,,"",,,"",,,,,,,,,,,,,,,,,,,
11,categorical_radar,categorical,radar,categoryLearning,14,1,CLICKED,4326,NEUTRAL,NEUTRAL,3,3,1,,,"",,,,,"",,,"",,,,,,,,,,,,,,,,,,,
12,uncertainty_radar,uncertainty,radar,categoryLearning,1,1,CLICKED,4241,FRIEND,FRIEND,2,2,1,,,"",,,,,"",,,"",,,,,,,,,,,,,,,,,,,
12,uncertainty_radar,uncertainty,radar,categoryLearning,2,0,TIMEOUT,,HOSTILE,,4,,1,,,"",,,,,"",,,"",,,,,,,,,,,,,,,,,,,
12,uncertainty_radar,uncertainty,radar,categoryLearning,3,0,CLICKED,1897,UNKNOWN,NEUTRAL,1,3,1,,,"",,,,,"",,,"",,,,,,,,,,,,,,,,,,,
12,uncertainty_radar,uncertainty,radar,categoryLearning,4,1,CLICKED,2562,ASSUMED_HOSTILE,ASSUMED_HOSTILE,6,6,1,,,"",,,,,"",,,"",,,,,,,,,,,,,,,,,,,
12,uncertainty_radar,uncertainty,radar,categoryLearning,5,1,CLICKED,2695,NEUTRAL,NEUTRAL,3,3,1,,,"",,,,,"",,,"",,,,,,,,,,,,,,,,,,,
12,uncertainty_radar,uncertainty,radar,categoryLearning,6,1,CLICKED,2033,ASSUMED_FRIEND,ASSUMED_FRIEND,5,5,1,,,"",,,,,"",,,"",,,,,,,,,,,,,,,,,,,
12,uncertainty_radar,uncertainty,radar,categoryLearning,7,1,CLICKED,1745,ASSUMED_HOSTILE,ASSUMED_HOSTILE,6,6,1,,,"",,,,,"",,,"",,,,,,,,,,,,,,,,,,,
12,uncertainty_radar,uncertainty,radar,categoryLearning,8,1,CLICKED,1817,FRIEND,FRIEND,2,2,1,,,"",,,,,"",,,"",,,,,,,,,,,,,,,,,,,
12,uncertainty_radar,uncertainty,radar,categoryLearning,9,1,CLICKED,1857,HOSTILE,HOSTILE,4,4,1,,,"",,,,,"",,,"",,,,,,,,,,,,,,,,,,,
12,uncertainty_radar,uncertainty,radar,categoryLearning,10,1,CLICKED,3003,UNKNOWN,UNKNOWN,1,1,1,,,"",,,,,"",,,"",,,,,,,,,,,,,,,,,,,
13,uncertainty_radar,uncertainty,radar,categoryLearning,1,0,TIMEOUT,,FRIEND,,2,,1,,,"",,,,,"",,,"",,,,,,,,,,,,,,,,,,,
13,uncertainty_radar,uncertainty,radar,categoryLearning,2,1,CLICKED,2747,HOSTILE,HOSTILE,4,4,1,,,"",,,,,"",,,"",,,,,,,,,,,,,,,,,,,
13,uncertainty_radar,uncertainty,radar,categoryLearning,3,0,CLICKED,3790,UNKNOWN,ASSUMED_FRIEND,1,5,1,,,"",,,,,"",,,"",,,,,,,,,,,,,,,,,,,
13,uncertainty_radar,uncertainty,radar,categoryLearning,4,1,CLICKED,4484,ASSUMED_HOSTILE,ASSUMED_HOSTILE,6,6,1,,,"",,,,,"",,,"",,,,,,,,,,,,,,,,,,,
13,uncertainty_radar,uncertainty,radar,categoryLearning,5,0,CLICKED,3657,NEUTRAL,FRIEND,3,2,1,,,"",,,,,"",,,"",,,,,,,,,,,,,,,,,,,
13,uncertainty_radar,uncertainty,radar,categoryLearning,6,0,CLICKED,1385,ASSUMED_FRIEND,FRIEND,5,2,1,,,"",,,,,"",,,"",,,,,,,,,,,,,,,,,,,
13,uncertainty_radar,uncertainty,radar,categoryLearning,7,0,CLICKED,4447,HOSTILE,NEUTRAL,4,3,1,,,"",,,,,"",,,"",,,,,,,,,,,,,,,,,,,
13,uncertainty_radar,uncertainty,radar,categoryLearning,8,1,CLICKED,2030,FRIEND,FRIEND,2,2,1,,,"",,,,,"",,,"",,,,,,,,,,,,,,,,,,,
13,uncertainty_radar,uncertainty,radar,categoryLearning,9,1,CLICKED,2042,NEUTRAL,NEUTRAL,3,3,1,,,"",,,,,"",,,"",,,,,,,,,,,,,,,,,,,
13,uncertainty_radar,uncertainty,radar,categoryLearning,10,0,CLICKED,4664,ASSUMED_FRIEND,ASSUMED_HOSTILE,5,6,1,,,"",,,,,"",,,"",,,,,,,,,,,,,,,,,,,
13,uncertainty_radar,uncertainty,radar,categoryLearning,11,0,CLICKED,3754,UNKNOWN,ASSUMED_HOSTILE,1,6,1,,,"",,,,,"",,,"",,,,,,,,,,,,,,,,,,,
13,uncertainty_radar,uncertainty,radar,categoryLearning,12,0,CLICKED,2128,ASSUMED_HOSTILE,NEUTRAL,6,3,1,,,"",,,,,"",,,"",,,,,,,,,,,,,,,,,,,
13,uncertainty_radar,uncertainty,radar,categoryLearning,13,1,CLICKED,2355,UNKNOWN,UNKNOWN,1,1,1,,,"",,,,,"",,,"",,,,,,,,,,,,,,,,,,,
13,uncertainty_radar,uncertainty,radar,categoryLearning,14,0,CLICKED,3761,ASSUMED_HOSTILE,ASSUMED_FRIEND,6,5,1,,,"",,,,,"",,,"",,,,,,,,,,,,,,,,,,,
13,uncertainty_radar,uncertainty,radar,categoryLearning,15,0,TIMEOUT,,NEUTRAL,,3,,1,,,"",,,,,"",,,"",,,,,,,,,,,,,,,,,,,
13,uncertainty_radar,uncertainty,radar,categoryLearning,16,1,CLICKED,1640,FRIEND,FRIEND,2,2,1,,,"",,,,,"",,,"",,,,,,,,,,,,,,,,,,,
13,uncertainty_radar,uncertainty,radar,categoryLearning,17,1,CLICKED,2742,HOSTILE,HOSTILE,4,4,1,,,"",,,,,"",,,"",,,,,,,,,,,,,,,,,,,
13,uncertainty_radar,uncertainty,radar,categoryLearning,18,0,CLICKED,2674,ASSUMED_FRIEND,NEUTRAL,5,3,1,,,"",,,,,"",,,"",,,,,,,,,,,,,,,,,,,
13,uncertainty_radar,uncertainty,radar,categoryLearning,19,1,CLICKED,1191,FRIEND,FRIEND,2,2,1,,,"",,,,,"",,,"",,,,,,,,,,,,,,,,,,,
13,uncertainty_radar,uncertainty,radar,categoryLearning,20,1,CLICKED,2456,ASSUMED_HOSTILE,ASSUMED_HOSTILE,6,6,1,,,"",,,,,"",,,"",,,,,,,,,,,,,,,,,,,
13,uncertainty_radar,uncertainty,radar,categoryLearning,21,1,CLICKED,2009,ASSUMED_FRIEND,ASSUMED_FRIEND,5,5,1,,,"",,,,,"",,,"",,,,,,,,,,,,,,,,,,,
13,uncertainty_radar,uncertainty,radar,categoryLearning,22,0,CLICKED,2822,NEUTRAL,HOSTILE,3,4,1,,,"",,,,,"",,,"",,,,,,,,,,,,,,,,,,,
13,uncertainty_radar,uncertainty,radar,categoryLearning,23,1,CLICKED,1451,UNKNOWN,UNKNOWN,1,1,1,,,"",,,,,"",,,"",,,,,,,,,,,,,,,,,,,
13,uncertainty_radar,uncertainty,radar,categoryLearning,24,0,CLICKED,3318,HOSTILE,NEUTRAL,4,3,1,,,"",,,,,"",,,"",,,,,,,,,,,,,,,,,,,
13,uncertainty_radar,uncertainty,radar,categoryLearning,25,1,CLICKED,3705,ASSUMED_HOSTILE,ASSUMED_HOSTILE,6,6,1,,,"",,,,,"",,,"",,,,,,,,,,,,,,,,,,,
13,uncertainty_radar,uncertainty,radar,categoryLearning,26,1,CLICKED,1537,ASSUMED_FRIEND,ASSUMED_FRIEND,5,5,1,,,"",,,,,"",,,"",,,,,,,,,,,,,,,,,,,
13,uncertainty_radar,uncertainty,radar,categoryLearning,27,1,CLICKED,2279,NEUTRAL,NEUTRAL,3,3,1,,,"",,,,,"",,,"",,,,,,,,,,,,,,,,,,,
13,uncertainty_radar,uncertainty,radar,categoryLearning,28,1,CLICKED,1686,UNKNOWN,UNKNOWN,1,1,1,,,"",,,,,"",,,"",,,,,,,,,,,,,,,,,,,
2,control_black,control,black,practiceMonitoring,1,0,TIMEOUT,,"","",,,,1499,4,HOSTILE,,,,,,0,3,NEUTRAL,544,560,,,,,,,,,,,,,,,,,
2,control_black,control,black,practiceMonitoring,2,1,CLICKED,2326,"","",,,,1764,3,NEUTRAL,1,230,362,1,UNKNOWN,1,1,UNKNOWN,230,362,,,,,,,,,,,,,,,,,
2,control_black,control,black,practiceMonitoring,3,1,CLICKED,1495,"","",,,,585,1,UNKNOWN,2,265,324,2,FRIEND,2,2,FRIEND,265,324,,,,,,,,,,,,,,,,,
3,control_black,control,black,practiceMonitoring,1,1,CLICKED,1235,"","",,,,1575,4,HOSTILE,0,301,242,3,NEUTRAL,0,3,NEUTRAL,301,242,,,,,,,,,,,,,,,,,
3,control_black,control,black,practiceMonitoring,2,0,TIMEOUT,,"","",,,,1464,3,NEUTRAL,,,,,,1,1,UNKNOWN,143,342,,,,,,,,,,,,,,,,,
3,control_black,control,black,practiceMonitoring,3,1,CLICKED,690,"","",,,,1819,1,UNKNOWN,2,383,398,2,FRIEND,2,2,FRIEND,383,398,,,,,,,,,,,,,,,,,
4,categorical_black,categorical,black,practiceMonitoring,1,0,CLICKED,3498,"","",,,,758,4,HOSTILE,3,450,175,6,ASSUMED_HOSTILE,0,3,NEUTRAL,197,400,,,,,,,,,,,,,,,,,
4,categorical_black,categorical,black,practiceMonitoring,2,0,CLICKED,1298,"","",,,,647,3,NEUTRAL,3,584,169,6,ASSUMED_HOSTILE,1,5,ASSUMED_FRIEND,309,597,,,,,,,,,,,,,,,,,
4,categorical_black,categorical,black,practiceMonitoring,3,1,CLICKED,1225,"","",,,,686,5,ASSUMED_FRIEND,2,439,331,6,ASSUMED_HOSTILE,2,6,ASSUMED_HOSTILE,439,331,,,,,,,,,,,,,,,,,
5,categorical_black,categorical,black,practiceMonitoring,1,0,TIMEOUT,,"","",,,,733,4,HOSTILE,,,,,,0,3,NEUTRAL,671,221,,,,,,,,,,,,,,,,,
5,categorical_black,categorical,black,practiceMonitoring,2,1,CLICKED,2204,"","",,,,1809,3,NEUTRAL,1,549,194,5,ASSUMED_FRIEND,1,5,ASSUMED_FRIEND,549,194,,,,,,,,,,,,,,,,,
5,categorical_black,categorical,black,practiceMonitoring,3,1,CLICKED,2017,"","",,,,1373,5,ASSUMED_FRIEND,2,590,528,6,ASSUMED_HOSTILE,2,6,ASSUMED_HOSTILE,590,528,,,,,,,,,,,,,,,,,
6,uncertainty_black,uncertainty,black,practiceMonitoring,1,1,CLICKED,998,"","",,,,914,4,HOSTILE,0,520,467,3,NEUTRAL,0,3,NEUTRAL,520,467,,,,,,,,,,,,,,,,,
6,uncertainty_black,uncertainty,black,practiceMonitoring,2,1,CLICKED,1733,"","",,,,1391,3,NEUTRAL,1,281,149,5,ASSUMED_FRIEND,1,5,ASSUMED_FRIEND,281,149,,,,,,,,,,,,,,,,,
6,uncertainty_black,uncertainty,black,practiceMonitoring,3,1,CLICKED,1884,"","",,,,1217,5,ASSUMED_FRIEND,2,158,608,6,ASSUMED_HOSTILE,2,6,ASSUMED_HOSTILE,158,608,,,,,,,,,,,,,,,,,
7,uncertainty_black,uncertainty,black,practiceMonitoring,1,1,CLICKED,1063,"","",,,,931,4,HOSTILE,0,439,-5,3,NEUTRAL,0,3,NEUTRAL,439,-5,,,,,,,,,,,,,,,,,
7,uncertainty_black,uncertainty,black,practiceMonitoring,2,0,TIMEOUT,,"","",,,,958,3,NEUTRAL,,,,,,1,5,ASSUMED_FRIEND,574,496,,,,,,,,,,,,,,,,,
7,uncertainty_black,uncertainty,black,practiceMonitoring,3,1,CLICKED,657,"","",,,,982,5,ASSUMED_FRIEND,2,456,272,6,ASSUMED_HOSTILE,2,6,ASSUMED_HOSTILE,456,272,,,,,,,,,,,,,,,,,
8,control_radar,control,radar,practiceMonitoring,1,0,CLICKED,3482,"","",,,,781,4,HOSTILE,3,145,105,2,FRIEND,0,3,NEUTRAL,361,496,,,,,,,,,,,,,,,,,
8,control_radar,control,radar,practiceMonitoring,2,0,TIMEOUT,,"","",,,,745,3,NEUTRAL,,,,,,1,1,UNKNOWN,385,526,,,,,,,,,,,,,,,,,
8,control_radar,control,radar,practiceMonitoring,3,0,CLICKED,3085,"","",,,,1631,1,UNKNOWN,3,416,649,2,FRIEND,2,2,FRIEND,352,40,,,,,,,,,,,,,,,,,
9,control_radar,control,radar,practiceMonitoring,1,0,TIMEOUT,,"","",,,,625,4,HOSTILE,,,,,,0,3,NEUTRAL,367,340,,,,,,,,,,,,,,,,,
9,control_radar,control,radar,practiceMonitoring,2,0,TIMEOUT,,"","",,,,678,3,NEUTRAL,,,,,,1,1,UNKNOWN,122,107,,,,,,,,,,,,,,,,,
9,control_radar,control,radar,practiceMonitoring,3,0,TIMEOUT,,"","",,,,1993,1,UNKNOWN,,,,,,2,2,FRIEND,253,464,,,,,,,,,,,,,,,,,
10,categorical_radar,categorical,radar,practiceMonitoring,1,0,TIMEOUT,,"","",,,,1082,4,HOSTILE,,,,,,0,3,NEUTRAL,257,211,,,,,,,,,,,,,,,,,
10,categorical_radar,categorical,radar,practiceMonitoring,2,1,CLICKED,2618,"","",,,,804,3,NEUTRAL,1,345,425,5,ASSUMED_FRIEND,1,5,ASSUMED_FRIEND,345,425,,,,,,,,,,,,,,,,,
10,categorical_radar,categorical,radar,practiceMonitoring,3,1,CLICKED,904,"","",,,,1860,5,ASSUMED_FRIEND,2,441,645,6,ASSUMED_HOSTILE,2,6,ASSUMED_HOSTILE,441,645,,,,,,,,,,,,,,,,,
11,categorical_radar,categorical,radar,practiceMonitoring,1,1,CLICKED,964,"","",,,,1524,4,HOSTILE,0,260,204,3,NEUTRAL,0,3,NEUTRAL,260,204,,,,,,,,,,,,,,,,,
11,categorical_radar,categorical,radar,practiceMonitoring,2,1,CLICKED,1065,"","",,,,1707,3,NEUTRAL,1,117,116,5,ASSUMED_FRIEND,1,5,ASSUMED_FRIEND,117,116,,,,,,,,,,,,,,,,,
11,categorical_radar,categorical,radar,practiceMonitoring,3,1,CLICKED,1281,"","",,,,850,5,ASSUMED_FRIEND,2,518,402,6,ASSUMED_HOSTILE,2,6,ASSUMED_HOSTILE,518,402,,,,,,,,,,,,,,,,,
12,uncertainty_radar,uncertainty,radar,practiceMonitoring,1,1,CLICKED,2238,"","",,,,1637,4,HOSTILE,0,497,184,3,NEUTRAL,0,3,NEUTRAL,497,184,,,,,,,,,,,,,,,,,
12,uncertainty_radar,uncertainty,radar,practiceMonitoring,2,1,CLICKED,958,"","",,,,1365,3,NEUTRAL,1,491,356,5,ASSUMED_FRIEND,1,5,ASSUMED_FRIEND,491,356,,,,,,,,,,,,,,,,,
12,uncertainty_radar,uncertainty,radar,practiceMonitoring,3,1,CLICKED,1080,"","",,,,1452,5,ASSUMED_FRIEND,2,332,290,6,ASSUMED_HOSTILE,2,6,ASSUMED_HOSTILE,332,290,,,,,,,,,,,,,,,,,
13,uncertainty_radar,uncertainty,radar,practiceMonitoring,1,0,CLICKED,3320,"","",,,,1344,4,HOSTILE,3,479,426,6,ASSUMED_HOSTILE,0,3,NEUTRAL,344,319,,,,,,,,,,,,,,,,,
13,uncertainty_radar,uncertainty,radar,practiceMonitoring,2,0,CLICKED,533,"","",,,,612,3,NEUTRAL,3,532,541,6,ASSUMED_HOSTILE,1,5,ASSUMED_FRIEND,347,507,,,,,,,,,,,,,,,,,
13,uncertainty_radar,uncertainty,radar,practiceMonitoring,3,0,TIMEOUT,,"","",,,,1658,5,ASSUMED_FRIEND,,,,,,2,6,ASSUMED_HOSTILE,348,17,,,,,,,,,,,,,,,,,
2,control_black,control,black,monitoring,1,0,TIMEOUT,,"","",,,,825,6,ASSUMED_HOSTILE,,,,,,18,3,NEUTRAL,228,280,0,1,FALSE,6,3,,2,3,0,6,2,6,5,0,0,24,1
2,control_black,control,black,monitoring,2,0,TIMEOUT,,"","",,,,1001,3,NEUTRAL,,,,,,8,4,HOSTILE,449,566,0,1,FALSE,3,4,,3,2,0,6,2,6,5,0,0,24,1
2,control_black,control,black,monitoring,3,1,CLICKED,1103,"","",,,,1647,1,UNKNOWN,,613,295,4,HOSTILE,0,4,HOSTILE,613,295,0,1,FALSE,1,4,0,4,2,0,5,2,6,5,0,0,24,1
2,control_black,control,black,monitoring,4,0,TIMEOUT,,"","",,,,1130,2,FRIEND,,,,,,6,3,NEUTRAL,314,149,0,1,FALSE,2,3,,4,3,0,5,1,6,5,0,0,24,1
2,control_black,control,black,monitoring,5,0,TIMEOUT,,"","",,,,1887,6,ASSUMED_HOSTILE,,,,,,19,1,UNKNOWN,193,237,0,1,FALSE,6,1,,4,3,0,6,1,6,4,0,0,24,1
2,control_black,control,black,monitoring,6,0,TIMEOUT,,"","",,,,1647,3,NEUTRAL,,,,,,6,5,ASSUMED_FRIEND,499,239,0,1,FALSE,3,5,,4,2,0,6,1,7,4,0,0,24,1
2,control_black,control,black,monitoring,7,1,CLICKED,1712,"","",,,,1444,1,UNKNOWN,,451,465,6,ASSUMED_HOSTILE,1,6,ASSUMED_HOSTILE,451,465,0,1,FALSE,1,6,1,4,2,0,5,1,7,5,0,0,24,1
2,control_black,control,black,monitoring,8,0,TIMEOUT,,"","",,,,1298,1,UNKNOWN,,,,,,2,2,FRIEND,562,238,0,1,FALSE,1,2,,4,2,0,4,2,7,5,0,0,24,1
2,control_black,control,black,monitoring,9,0,TIMEOUT,,"","",,,,1498,3,NEUTRAL,,,,,,9,2,FRIEND,519,640,0,1,FALSE,3,2,,4,1,0,4,3,7,5,0,0,24,1
2,control_black,control,black,monitoring,10,0,TIMEOUT,,"","",,,,1722,5,ASSUMED_FRIEND,,,,,,6,4,HOSTILE,298,276,0,1,FALSE,5,4,,5,1,0,4,3,6,5,0,0,24,1
2,control_black,control,black,monitoring,11,0,TIMEOUT,,"","",,,,1650,5,ASSUMED_FRIEND,,,,,,12,1,UNKNOWN,458,590,0,1,FALSE,5,1,,5,1,0,5,3,5,5,0,0,24,1
2,control_black,control,black,monitoring,12,0,TIMEOUT,,"","",,,,1373,5,ASSUMED_FRIEND,,,,,,13,2,FRIEND,167,684,0,1,FALSE,5,2,,5,1,0,5,4,4,5,0,0,24,1
2,control_black,control,black,monitoring,13,0,TIMEOUT,,"","",,,,903,1,UNKNOWN,,,,,,3,3,NEUTRAL,255,418,0,1,FALSE,1,3,,5,2,0,4,4,4,5,0,0,24,1
2,control_black,control,black,monitoring,14,0,TIMEOUT,,"","",,,,766,1,UNKNOWN,,,,,,4,6,ASSUMED_HOSTILE,160,238,0,1,FALSE,1,6,,5,2,0,3,4,4,6,0,0,24,1
2,control_black,control,black,monitoring,15,0,TIMEOUT,,"","",,,,801,1,UNKNOWN,,,,,,5,2,FRIEND,238,401,0,1,FALSE,1,2,,5,2,0,2,5,4,6,0,0,24,1
2,control_black,control,black,monitoring,16,0,TIMEOUT,,"","",,,,1639,6,ASSUMED_HOSTILE,,,,,,1,4,HOSTILE,471,409,0,1,FALSE,6,4,,6,2,0,2,5,4,5,0,0,24,1
2,control_black,control,black,monitoring,17,0,TIMEOUT,,"","",,,,1193,6,ASSUMED_HOSTILE,,,,,,4,5,ASSUMED_FRIEND,431,524,0,1,FALSE,6,5,,6,2,0,2,5,5,4,0,0,24,1
2,control_black,control,black,monitoring,18,0,TIMEOUT,,"","",,,,1734,1,UNKNOWN,,,,,,12,5,ASSUMED_FRIEND,237,358,0,1,FALSE,1,5,,6,2,0,1,5,6,4,0,0,24,1
2,control_black,control,black,monitoring,19,0,CLICKED,1634,"","",,,,1487,1,UNKNOWN,,355,441,2,FRIEND,19,3,NEUTRAL,313,272,0,1,FALSE,1,3,13,6,3,0,0,5,6,4,0,0,24,1
2,control_black,control,black,monitoring,20,0,TIMEOUT,,"","",,,,1333,4,HOSTILE,,,,,,0,1,UNKNOWN,332,209,0,1,FALSE,4,1,,5,3,0,1,5,6,4,0,0,24,1
2,control_black,control,black,monitoring,21,0,TIMEOUT,,"","",,,,1828,5,ASSUMED_FRIEND,,,,,,4,2,FRIEND,298,710,0,1,FALSE,5,2,,5,3,0,1,6,5,4,0,0,24,1
2,control_black,control,black,monitoring,22,0,TIMEOUT,,"","",,,,1776,5,ASSUMED_FRIEND,,,,,,12,1,UNKNOWN,118,686,0,1,FALSE,5,1,,5,3,0,2,6,4,4,0,0,24,1
2,control_black,control,black,monitoring,23,0,TIMEOUT,,"","",,,,1829,5,ASSUMED_FRIEND,,,,,,14,6,ASSUMED_HOSTILE,287,426,0,1,FALSE,5,6,,5,3,0,2,6,3,5,0,0,24,1
2,control_black,control,black,monitoring,24,0,TIMEOUT,,"","",,,,1692,5,ASSUMED_FRIEND,,,,,,15,3,NEUTRAL,662,646,0,1,FALSE,5,3,,5,4,0,2,6,2,5,0,0,24,1
2,control_black,control,black,monitoring,25,0,TIMEOUT,,"","",,,,1732,4,HOSTILE,,,,,,1,5,ASSUMED_FRIEND,101,686,0,1,FALSE,4,5,,4,4,0,2,6,3,5,0,0,24,1
2,control_black,control,black,monitoring,26,0,TIMEOUT,,"","",,,,1011,1,UNKNOWN,,,,,,0,3,NEUTRAL,380,243,0,1,FALSE,1,3,,4,5,0,1,6,3,5,0,0,24,1
2,control_black,control,black,monitoring,27,0,TIMEOUT,,"","",,,,1225,5,ASSUMED_FRIEND,,,,,,1,6,ASSUMED_HOSTILE,196,326,0,1,FALSE,5,6,,4,5,0,1,6,2,6,0,0,24,1
2,control_black,control,black,monitoring,28,0,TIMEOUT,,"","",,,,1034,5,ASSUMED_FRIEND,,,,,,16,4,HOSTILE,667,275,0,1,FALSE,5,4,,5,5,0,1,6,1,6,0,0,24,1
2,control_black,control,black,monitoring,29,0,TIMEOUT,,"","",,,,1064,5,ASSUMED_FRIEND,,,,,,17,2,FRIEND,509,580,0,1,FALSE,5,2,,5,5,0,1,7,0,6,0,0,24,1
2,control_black,control,black,monitoring,30,0,CLICKED,3009,"","",,,,751,6,ASSUMED_HOSTILE,,626,308,3,NEUTRAL,1,2,FRIEND,220,483,0,1,FALSE,6,2,15,5,5,0,1,8,0,5,0,0,24,1
3,control_black,control,black,monitoring,1,1,CLICKED,763,"","",,,,1797,2,FRIEND,,607,196,6,ASSUMED_HOSTILE,6,6,ASSUMED_HOSTILE,607,196,0,1,FALSE,2,6,6,2,2,0,6,1,6,7,0,0,24,1
3,control_black,control,black,monitoring,2,0,TIMEOUT,,"","",,,,1777,6,ASSUMED_HOSTILE,,,,,,6,2,FRIEND,584,330,0,1,FALSE,6,2,,2,2,0,6,2,6,6,0,0,24,1
3,control_black,control,black,monitoring,3,0,TIMEOUT,,"","",,,,1996,6,ASSUMED_HOSTILE,,,,,,18,4,HOSTILE,424,253,0,1,FALSE,6,4,,3,2,0,6,2,6,5,0,0,24,1
3,control_black,control,black,monitoring,4,1,CLICKED,682,"","",,,,1759,6,ASSUMED_HOSTILE,,453,312,2,FRIEND,19,2,FRIEND,453,312,0,1,FALSE,6,2,19,3,2,0,6,3,6,4,0,0,24,1
3,control_black,control,black,monitoring,5,0,TIMEOUT,,"","",,,,1848,5,ASSUMED_FRIEND,,,,,,12,1,UNKNOWN,420,563,0,1,FALSE,5,1,,3,2,0,7,3,5,4,0,0,24,1
3,control_black,control,black,monitoring,6,0,TIMEOUT,,"","",,,,754,6,ASSUMED_HOSTILE,,,,,,20,1,UNKNOWN,374,432,0,1,FALSE,6,1,,3,2,0,8,3,5,3,0,0,24,1
3,control_black,control,black,monitoring,7,0,TIMEOUT,,"","",,,,1903,5,ASSUMED_FRIEND,,,,,,13,2,FRIEND,211,179,0,1,FALSE,5,2,,3,2,0,8,4,4,3,0,0,24,1
3,control_black,control,black,monitoring,8,0,TIMEOUT,,"","",,,,1879,5,ASSUMED_FRIEND,,,,,,14,3,NEUTRAL,232,553,0,1,FALSE,5,3,,3,3,0,8,4,3,3,0,0,24,1
3,control_black,control,black,monitoring,9,0,TIMEOUT,,"","",,,,971,2,FRIEND,,,,,,6,5,ASSUMED_FRIEND,347,462,0,1,FALSE,2,5,,3,3,0,8,3,4,3,0,0,24,1
3,control_black,control,black,monitoring,10,0,TIMEOUT,,"","",,,,691,3,NEUTRAL,,,,,,8,6,ASSUMED_HOSTILE,209,181,0,1,FALSE,3,6,,3,2,0,8,3,4,4,0,0,24,1
3,control_black,control,black,monitoring,11,0,TIMEOUT,,"","",,,,1407,1,UNKNOWN,,,,,,0,3,NEUTRAL,96,516,0,1,FALSE,1,3,,3,3,0,7,3,4,4,0,0,24,1
3,control_black,control,black,monitoring,12,0,TIMEOUT,,"","",,,,1566,1,UNKNOWN,,,,,,1,4,HOSTILE,545,270,0,1,FALSE,1,4,,4,3,0,6,3,4,4,0,0,24,1
3,control_black,control,black,monitoring,13,0,CLICKED,205,"","",,,,754,1,UNKNOWN,,272,620,4,HOSTILE,2,6,ASSUMED_HOSTILE,548,286,0,1,FALSE,1,6,10,4,3,0,5,3,4,5,0,0,24,1
3,control_black,control,black,monitoring,14,0,CLICKED,1012,"","",,,,1514,3,NEUTRAL,,631,30,6,ASSUMED_HOSTILE,0,5,ASSUMED_FRIEND,282,566,0,1,FALSE,3,5,22,4,2,0,5,3,5,5,0,0,24,1
3,control_black,control,black,monitoring,15,0,TIMEOUT,,"","",,,,624,1,UNKNOWN,,,,,,3,5,ASSUMED_FRIEND,283,337,0,1,FALSE,1,5,,4,2,0,4,3,6,5,0,0,24,1
3,control_black,control,black,monitoring,16,1,CLICKED,1009,"","",,,,1116,6,ASSUMED_HOSTILE,,379,323,5,ASSUMED_FRIEND,2,5,ASSUMED_FRIEND,379,323,0,1,FALSE,6,5,2,4,2,0,4,3,7,4,0,0,24,1
3,control_black,control,black,monitoring,17,0,TIMEOUT,,"","",,,,1083,4,HOSTILE,,,,,,1,1,UNKNOWN,463,644,0,1,FALSE,4,1,,3,2,0,5,3,7,4,0,0,24,1
3,control_black,control,black,monitoring,18,0,TIMEOUT,,"","",,,,1608,1,UNKNOWN,,,,,,1,6,ASSUMED_HOSTILE,533,609,0,1,FALSE,1,6,,3,2,0,4,3,7,5,0,0,24,1
3,control_black,control,black,monitoring,19,0,TIMEOUT,,"","",,,,805,6,ASSUMED_HOSTILE,,,,,,1,4,HOSTILE,642,672,0,1,FALSE,6,4,,4,2,0,4,3,7,4,0,0,24,1
3,control_black,control,black,monitoring,20,0,TIMEOUT,,"","",,,,559,1,UNKNOWN,,,,,,4,5,ASSUMED_FRIEND,487,455,0,1,FALSE,1,5,,4,2,0,3,3,8,4,0,0,24,1
3,control_black,control,black,monitoring,21,0,TIMEOUT,,"","",,,,1384,5,ASSUMED_FRIEND,,,,,,0,3,NEUTRAL,224,683,0,1,FALSE,5,3,,4,3,0,3,3,7,4,0,0,24,1
3,control_black,control,black,monitoring,22,0,CLICKED,4597,"","",,,,1793,5,ASSUMED_FRIEND,,-4,543,4,HOSTILE,2,2,FRIEND,372,257,0,1,FALSE,5,2,10,4,3,0,3,4,6,4,0,0,24,1
3,control_black,control,black,monitoring,23,0,TIMEOUT,,"","",,,,1886,5,ASSUMED_FRIEND,,,,,,3,3,NEUTRAL,672,176,0,1,FALSE,5,3,,4,4,0,3,4,5,4,0,0,24,1
3,control_black,control,black,monitoring,24,0,TIMEOUT,,"","",,,,1684,5,ASSUMED_FRIEND,,,,,,4,4,HOSTILE,564,381,0,1,FALSE,5,4,,5,4,0,3,4,4,4,0,0,24,1
3,control_black,control,black,monitoring,25,0,TIMEOUT,,"","",,,,1966,1,UNKNOWN,,,,,,5,3,NEUTRAL,390,524,0,1,FALSE,1,3,,5,5,0,2,4,4,4,0,0,24,1
3,control_black,control,black,monitoring,26,0,TIMEOUT,,"","",,,,1239,1,UNKNOWN,,,,,,12,5,ASSUMED_FRIEND,392,146,0,1,FALSE,1,5,,5,5,0,1,4,5,4,0,0,24,1
3,control_black,control,black,monitoring,27,1,CLICKED,1370,"","",,,,1510,6,ASSUMED_HOSTILE,,450,213,2,FRIEND,8,2,FRIEND,450,213,0,1,FALSE,6,2,8,5,5,0,1,5,5,3,0,0,24,1
3,control_black,control,black,monitoring,28,1,CLICKED,1697,"","",,,,1828,6,ASSUMED_HOSTILE,,514,265,1,UNKNOWN,21,1,UNKNOWN,514,265,0,1,FALSE,6,1,21,5,5,0,2,5,5,2,0,0,24,1
3,control_black,control,black,monitoring,29,1,CLICKED,1427,"","",,,,1978,3,NEUTRAL,,281,503,2,FRIEND,0,2,FRIEND,281,503,0,1,FALSE,3,2,0,5,4,0,2,6,5,2,0,0,24,1
3,control_black,control,black,monitoring,30,1,CLICKED,934,"","",,,,984,5,ASSUMED_FRIEND,,147,500,1,UNKNOWN,6,1,UNKNOWN,147,500,0,1,FALSE,5,1,6,5,4,0,3,6,4,2,0,0,24,1
4,categorical_black,categorical,black,monitoring,1,1,CLICKED,1133,"","",,,,1629,6,ASSUMED_HOSTILE,,520,637,5,ASSUMED_FRIEND,18,5,ASSUMED_FRIEND,520,637,0,1,FALSE,6,5,18,2,2,0,6,2,7,5,0,0,24,1
4,categorical_black,categorical,black,monitoring,2,0,TIMEOUT,,"","",,,,799,5,ASSUMED_FRIEND,,,,,,12,6,ASSUMED_HOSTILE,470,686,0,1,FALSE,5,6,,2,2,0,6,2,6,6,0,0,24,1
4,categorical_black,categorical,black,monitoring,3,1,CLICKED,1110,"","",,,,596,6,ASSUMED_HOSTILE,,478,646,4,HOSTILE,12,4,HOSTILE,478,646,0,1,FALSE,6,4,12,3,2,0,6,2,6,5,0,0,24,1
4,categorical_black,categorical,black,monitoring,4,1,CLICKED,1360,"","",,,,873,5,ASSUMED_FRIEND,,169,340,4,HOSTILE,13,4,HOSTILE,169,340,0,1,FALSE,5,4,13,4,2,0,6,2,5,5,0,0,24,1
4,categorical_black,categorical,black,monitoring,5,1,CLICKED,1773,"","",,,,1301,6,ASSUMED_HOSTILE,,38,647,2,FRIEND,19,2,FRIEND,38,647,0,1,FALSE,6,2,19,4,2,0,6,3,5,4,0,0,24,1
4,categorical_black,categorical,black,monitoring,6,1,CLICKED,1279,"","",,,,1443,5,ASSUMED_FRIEND,,204,384,2,FRIEND,14,2,FRIEND,204,384,0,1,FALSE,5,2,14,4,2,0,6,4,4,4,0,0,24,1
4,categorical_black,categorical,black,monitoring,7,0,TIMEOUT,,"","",,,,963,4,HOSTILE,,,,,,10,1,UNKNOWN,308,520,0,1,FALSE,4,1,,3,2,0,7,4,4,4,0,0,24,1
4,categorical_black,categorical,black,monitoring,8,1,CLICKED,1451,"","",,,,861,1,UNKNOWN,,185,387,4,HOSTILE,0,4,HOSTILE,185,387,0,1,FALSE,1,4,0,4,2,0,6,4,4,4,0,0,24,1
4,categorical_black,categorical,black,monitoring,9,1,CLICKED,1605,"","",,,,1777,6,ASSUMED_HOSTILE,,354,446,1,UNKNOWN,20,1,UNKNOWN,354,446,0,1,FALSE,6,1,20,4,2,0,7,4,4,3,0,0,24,1
4,categorical_black,categorical,black,monitoring,10,1,CLICKED,1426,"","",,,,792,6,ASSUMED_HOSTILE,,260,371,3,NEUTRAL,21,3,NEUTRAL,260,371,0,1,FALSE,6,3,21,4,3,0,7,4,4,2,0,0,24,1
4,categorical_black,categorical,black,monitoring,11,1,CLICKED,1563,"","",,,,1094,1,UNKNOWN,,391,564,2,FRIEND,1,2,FRIEND,391,564,0,1,FALSE,1,2,1,4,3,0,6,5,4,2,0,0,24,1
4,categorical_black,categorical,black,monitoring,12,0,TIMEOUT,,"","",,,,1874,5,ASSUMED_FRIEND,,,,,,15,3,NEUTRAL,438,560,0,1,FALSE,5,3,,4,4,0,6,5,3,2,0,0,24,1
4,categorical_black,categorical,black,monitoring,13,0,TIMEOUT,,"","",,,,828,1,UNKNOWN,,,,,,2,2,FRIEND,535,507,0,1,FALSE,1,2,,4,4,0,5,6,3,2,0,0,24,1
4,categorical_black,categorical,black,monitoring,14,0,TIMEOUT,,"","",,,,834,5,ASSUMED_FRIEND,,,,,,16,4,HOSTILE,431,352,0,1,FALSE,5,4,,5,4,0,5,6,2,2,0,0,24,1
4,categorical_black,categorical,black,monitoring,15,1,CLICKED,2209,"","",,,,1430,3,NEUTRAL,,557,660,4,HOSTILE,8,4,HOSTILE,557,660,0,1,FALSE,3,4,8,6,3,0,5,6,2,2,0,0,24,1
4,categorical_black,categorical,black,monitoring,16,1,CLICKED,1373,"","",,,,1121,1,UNKNOWN,,616,296,4,HOSTILE,3,4,HOSTILE,616,296,0,1,FALSE,1,4,3,7,3,0,4,6,2,2,0,0,24,1
4,categorical_black,categorical,black,monitoring,17,0,CLICKED,1460,"","",,,,801,5,ASSUMED_FRIEND,,517,209,6,ASSUMED_HOSTILE,17,6,ASSUMED_HOSTILE,602,182,0,1,FALSE,5,6,22,7,3,0,4,6,1,3,0,0,24,1
4,categorical_black,categorical,black,monitoring,18,1,CLICKED,1916,"","",,,,1699,4,HOSTILE,,387,194,6,ASSUMED_HOSTILE,0,6,ASSUMED_HOSTILE,387,194,0,1,FALSE,4,6,0,6,3,0,4,6,1,4,0,0,24,1
4,categorical_black,categorical,black,monitoring,19,0,TIMEOUT,,"","",,,,627,1,UNKNOWN,,,,,,4,5,ASSUMED_FRIEND,449,355,0,1,FALSE,1,5,,6,3,0,3,6,2,4,0,0,24,1
4,categorical_black,categorical,black,monitoring,20,1,CLICKED,1110,"","",,,,1721,6,ASSUMED_HOSTILE,,310,222,4,HOSTILE,0,4,HOSTILE,310,222,0,1,FALSE,6,4,0,7,3,0,3,6,2,3,0,0,24,1
4,categorical_black,categorical,black,monitoring,21,1,CLICKED,1676,"","",,,,1494,6,ASSUMED_HOSTILE,,585,135,4,HOSTILE,17,4,HOSTILE,585,135,0,1,FALSE,6,4,17,8,3,0,3,6,2,2,0,0,24,1
4,categorical_black,categorical,black,monitoring,22,0,TIMEOUT,,"","",,,,546,3,NEUTRAL,,,,,,9,2,FRIEND,336,340,0,1,FALSE,3,2,,8,2,0,3,7,2,2,0,0,24,1
4,categorical_black,categorical,black,monitoring,23,1,CLICKED,1740,"","",,,,679,1,UNKNOWN,,252,475,3,NEUTRAL,5,3,NEUTRAL,252,475,0,1,FALSE,1,3,5,8,3,0,2,7,2,2,0,0,24,1
4,categorical_black,categorical,black,monitoring,24,1,CLICKED,1210,"","",,,,1019,6,ASSUMED_HOSTILE,,271,315,1,UNKNOWN,22,1,UNKNOWN,271,315,0,1,FALSE,6,1,22,8,3,0,3,7,2,1,0,0,24,1
4,categorical_black,categorical,black,monitoring,25,0,TIMEOUT,,"","",,,,1706,1,UNKNOWN,,,,,,10,3,NEUTRAL,553,383,0,1,FALSE,1,3,,8,4,0,2,7,2,1,0,0,24,1
4,categorical_black,categorical,black,monitoring,26,1,CLICKED,1330,"","",,,,1705,6,ASSUMED_HOSTILE,,190,511,1,UNKNOWN,23,1,UNKNOWN,190,511,0,1,FALSE,6,1,23,8,4,0,3,7,2,0,0,0,24,1
4,categorical_black,categorical,black,monitoring,27,0,TIMEOUT,,"","",,,,731,1,UNKNOWN,,,,,,20,5,ASSUMED_FRIEND,211,309,0,1,FALSE,1,5,,8,4,0,2,7,3,0,0,0,24,1
4,categorical_black,categorical,black,monitoring,28,0,TIMEOUT,,"","",,,,1155,1,UNKNOWN,,,,,,22,4,HOSTILE,94,78,0,1,FALSE,1,4,,9,4,0,1,7,3,0,0,0,24,1
4,categorical_black,categorical,black,monitoring,29,0,TIMEOUT,,"","",,,,792,1,UNKNOWN,,,,,,23,3,NEUTRAL,412,519,0,1,FALSE,1,3,,9,5,0,0,7,3,0,0,0,24,1
4,categorical_black,categorical,black,monitoring,30,1,CLICKED,1930,"","",,,,1479,5,ASSUMED_FRIEND,,597,476,3,NEUTRAL,4,3,NEUTRAL,597,476,0,1,FALSE,5,3,4,9,6,0,0,7,2,0,0,0,24,1
5,categorical_black,categorical,black,monitoring,1,0,TIMEOUT,,"","",,,,1899,1,UNKNOWN,,,,,,0,2,FRIEND,388,494,0,1,FALSE,1,2,,2,2,0,5,3,6,6,0,0,24,1
5,categorical_black,categorical,black,monitoring,2,0,TIMEOUT,,"","",,,,1203,6,ASSUMED_HOSTILE,,,,,,18,2,FRIEND,105,367,0,1,FALSE,6,2,,2,2,0,5,4,6,5,0,0,24,1
5,categorical_black,categorical,black,monitoring,3,0,TIMEOUT,,"","",,,,1407,1,UNKNOWN,,,,,,1,5,ASSUMED_FRIEND,427,262,0,1,FALSE,1,5,,2,2,0,4,4,7,5,0,0,24,1
5,categorical_black,categorical,black,monitoring,4,0,TIMEOUT,,"","",,,,879,1,UNKNOWN,,,,,,2,6,ASSUMED_HOSTILE,185,432,0,1,FALSE,1,6,,2,2,0,3,4,7,6,0,0,24,1
5,categorical_black,categorical,black,monitoring,5,0,TIMEOUT,,"","",,,,1458,3,NEUTRAL,,,,,,8,5,ASSUMED_FRIEND,155,146,0,1,FALSE,3,5,,2,1,0,3,4,8,6,0,0,24,1
5,categorical_black,categorical,black,monitoring,6,0,TIMEOUT,,"","",,,,936,1,UNKNOWN,,,,,,3,4,HOSTILE,486,88,0,1,FALSE,1,4,,3,1,0,2,4,8,6,0,0,24,1
5,categorical_black,categorical,black,monitoring,7,0,TIMEOUT,,"","",,,,896,1,UNKNOWN,,,,,,4,6,ASSUMED_HOSTILE,436,240,0,1,FALSE,1,6,,3,1,0,1,4,8,7,0,0,24,1
5,categorical_black,categorical,black,monitoring,8,1,CLICKED,4818,"","",,,,1784,5,ASSUMED_FRIEND,,534,666,1,UNKNOWN,1,1,UNKNOWN,534,666,0,1,FALSE,5,1,1,3,1,0,2,4,7,7,0,0,24,1
5,categorical_black,categorical,black,monitoring,9,0,TIMEOUT,,"","",,,,2000,6,ASSUMED_HOSTILE,,,,,,2,1,UNKNOWN,275,698,0,1,FALSE,6,1,,3,1,0,3,4,7,6,0,0,24,1
5,categorical_black,categorical,black,monitoring,10,0,TIMEOUT,,"","",,,,867,1,UNKNOWN,,,,,,1,2,FRIEND,304,484,0,1,FALSE,1,2,,3,1,0,2,5,7,6,0,0,24,1
5,categorical_black,categorical,black,monitoring,11,0,TIMEOUT,,"","",,,,504,5,ASSUMED_FRIEND,,,,,,8,4,HOSTILE,533,422,0,1,FALSE,5,4,,4,1,0,2,5,6,6,0,0,24,1
5,categorical_black,categorical,black,monitoring,12,0,TIMEOUT,,"","",,,,707,5,ASSUMED_FRIEND,,,,,,12,1,UNKNOWN,549,207,0,1,FALSE,5,1,,4,1,0,3,5,5,6,0,0,24,1
5,categorical_black,categorical,black,monitoring,13,1,CLICKED,1057,"","",,,,1322,5,ASSUMED_FRIEND,,206,206,4,HOSTILE,13,4,HOSTILE,206,206,0,1,FALSE,5,4,13,5,1,0,3,5,4,6,0,0,24,1
5,categorical_black,categorical,black,monitoring,14,0,TIMEOUT,,"","",,,,575,2,FRIEND,,,,,,0,5,ASSUMED_FRIEND,147,287,0,1,FALSE,2,5,,5,1,0,3,4,5,6,0,0,24,1
5,categorical_black,categorical,black,monitoring,15,0,TIMEOUT,,"","",,,,1981,3,NEUTRAL,,,,,,9,2,FRIEND,470,206,0,1,FALSE,3,2,,5,0,0,3,5,5,6,0,0,24,1
5,categorical_black,categorical,black,monitoring,16,0,TIMEOUT,,"","",,,,557,6,ASSUMED_HOSTILE,,,,,,4,1,UNKNOWN,381,561,0,1,FALSE,6,1,,5,0,0,4,5,5,5,0,0,24,1
5,categorical_black,categorical,black,monitoring,17,0,CLICKED,2955,"","",,,,1557,6,ASSUMED_HOSTILE,,470,240,2,FRIEND,19,2,FRIEND,575,151,0,1,FALSE,6,2,9,5,0,0,4,6,5,4,0,0,24,1
5,categorical_black,categorical,black,monitoring,18,0,TIMEOUT,,"","",,,,576,5,ASSUMED_FRIEND,,,,,,0,2,FRIEND,187,258,0,1,FALSE,5,2,,5,0,0,4,7,4,4,0,0,24,1
5,categorical_black,categorical,black,monitoring,19,1,CLICKED,1478,"","",,,,1032,2,FRIEND,,148,419,6,ASSUMED_HOSTILE,0,6,ASSUMED_HOSTILE,148,419,0,1,FALSE,2,6,0,5,0,0,4,6,4,5,0,0,24,1
5,categorical_black,categorical,black,monitoring,20,1,CLICKED,1834,"","",,,,1751,5,ASSUMED_FRIEND,,459,292,6,ASSUMED_HOSTILE,14,6,ASSUMED_HOSTILE,459,292,0,1,FALSE,5,6,14,5,0,0,4,6,3,6,0,0,24,1
5,categorical_black,categorical,black,monitoring,21,1,CLICKED,1098,"","",,,,903,1,UNKNOWN,,303,423,4,HOSTILE,2,4,HOSTILE,303,423,0,1,FALSE,1,4,2,6,0,0,3,6,3,6,0,0,24,1
5,categorical_black,categorical,black,monitoring,22,1,CLICKED,1015,"","",,,,1090,6,ASSUMED_HOSTILE,,139,485,4,HOSTILE,0,4,HOSTILE,139,485,0,1,FALSE,6,4,0,7,0,0,3,6,3,5,0,0,24,1
5,categorical_black,categorical,black,monitoring,23,0,CLICKED,4449,"","",,,,1746,6,ASSUMED_HOSTILE,,478,140,2,FRIEND,14,5,ASSUMED_FRIEND,497,282,0,1,FALSE,6,5,18,7,0,0,3,6,4,4,0,0,24,1
5,categorical_black,categorical,black,monitoring,24,0,TIMEOUT,,"","",,,,1449,1,UNKNOWN,,,,,,4,2,FRIEND,295,232,0,1,FALSE,1,2,,7,0,0,2,7,4,4,0,0,24,1
5,categorical_black,categorical,black,monitoring,25,0,TIMEOUT,,"","",,,,1452,5,ASSUMED_FRIEND,,,,,,14,4,HOSTILE,519,181,0,1,FALSE,5,4,,8,0,0,2,7,3,4,0,0,24,1
5,categorical_black,categorical,black,monitoring,26,0,TIMEOUT,,"","",,,,581,5,ASSUMED_FRIEND,,,,,,15,4,HOSTILE,148,332,0,1,FALSE,5,4,,9,0,0,2,7,2,4,0,0,24,1
5,categorical_black,categorical,black,monitoring,27,0,TIMEOUT,,"","",,,,1725,1,UNKNOWN,,,,,,5,5,ASSUMED_FRIEND,70,549,0,1,FALSE,1,5,,9,0,0,1,7,3,4,0,0,24,1
5,categorical_black,categorical,black,monitoring,28,1,CLICKED,1468,"","",,,,1415,2,FRIEND,,289,365,4,HOSTILE,1,4,HOSTILE,289,365,0,1,FALSE,2,4,1,10,0,0,1,6,3,4,0,0,24,1
5,categorical_black,categorical,black,monitoring,29,1,CLICKED,1020,"","",,,,1148,6,ASSUMED_HOSTILE,,567,436,4,HOSTILE,20,4,HOSTILE,567,436,0,1,FALSE,6,4,20,11,0,0,1,6,3,3,0,0,24,1
5,categorical_black,categorical,black,monitoring,30,0,TIMEOUT,,"","",,,,909,5,ASSUMED_FRIEND,,,,,,5,3,NEUTRAL,607,442,0,1,FALSE,5,3,,11,1,0,1,6,2,3,0,0,24,1
6,uncertainty_black,uncertainty,black,monitoring,1,1,CLICKED,919,"","",,,,1493,4,HOSTILE,,623,145,2,FRIEND,10,2,FRIEND,623,145,0,1,FALSE,4,2,10,1,2,0,6,3,6,6,0,0,24,1
6,uncertainty_black,uncertainty,black,monitoring,2,1,CLICKED,1032,"","",,,,500,1,UNKNOWN,,474,230,6,ASSUMED_HOSTILE,0,6,ASSUMED_HOSTILE,474,230,0,1,FALSE,1,6,0,1,2,0,5,3,6,7,0,0,24,1
6,uncertainty_black,uncertainty,black,monitoring,3,1,CLICKED,1286,"","",,,,1071,1,UNKNOWN,,306,504,5,ASSUMED_FRIEND,1,5,ASSUMED_FRIEND,306,504,0,1,FALSE,1,5,1,1,2,0,4,3,7,7,0,0,24,1
6,uncertainty_black,uncertainty,black,monitoring,4,1,CLICKED,1053,"","",,,,1767,2,FRIEND,,405,176,5,ASSUMED_FRIEND,6,5,ASSUMED_FRIEND,405,176,0,1,FALSE,2,5,6,1,2,0,4,2,8,7,0,0,24,1
6,uncertainty_black,uncertainty,black,monitoring,5,1,CLICKED,1120,"","",,,,572,1,UNKNOWN,,742,237,5,ASSUMED_FRIEND,2,5,ASSUMED_FRIEND,742,237,0,1,FALSE,1,5,2,1,2,0,3,2,9,7,0,0,24,1
6,uncertainty_black,uncertainty,black,monitoring,6,1,CLICKED,1491,"","",,,,1229,5,ASSUMED_FRIEND,,177,450,6,ASSUMED_HOSTILE,1,6,ASSUMED_HOSTILE,177,450,0,1,FALSE,5,6,1,1,2,0,3,2,8,8,0,0,24,1
6,uncertainty_black,uncertainty,black,monitoring,7,1,CLICKED,1043,"","",,,,989,5,ASSUMED_FRIEND,,645,296,3,NEUTRAL,2,3,NEUTRAL,645,296,0,1,FALSE,5,3,2,1,3,0,3,2,7,8,0,0,24,1
6,uncertainty_black,uncertainty,black,monitoring,8,1,CLICKED,1073,"","",,,,927,6,ASSUMED_HOSTILE,,547,183,3,NEUTRAL,0,3,NEUTRAL,547,183,0,1,FALSE,6,3,0,1,4,0,3,2,7,7,0,0,24,1
6,uncertainty_black,uncertainty,black,monitoring,9,1,CLICKED,957,"","",,,,1864,3,NEUTRAL,,547,185,5,ASSUMED_FRIEND,0,5,ASSUMED_FRIEND,547,185,0,1,FALSE,3,5,0,1,3,0,3,2,8,7,0,0,24,1
6,uncertainty_black,uncertainty,black,monitoring,10,1,CLICKED,1037,"","",,,,741,1,UNKNOWN,,303,370,2,FRIEND,3,2,FRIEND,303,370,0,1,FALSE,1,2,3,1,3,0,2,3,8,7,0,0,24,1
6,uncertainty_black,uncertainty,black,monitoring,11,1,CLICKED,1038,"","",,,,1999,5,ASSUMED_FRIEND,,660,19,2,FRIEND,0,2,FRIEND,660,19,0,1,FALSE,5,2,0,1,3,0,2,4,7,7,0,0,24,1
6,uncertainty_black,uncertainty,black,monitoring,12,1,CLICKED,1261,"","",,,,557,5,ASSUMED_FRIEND,,64,332,2,FRIEND,6,2,FRIEND,64,332,0,1,FALSE,5,2,6,1,3,0,2,5,6,7,0,0,24,1
6,uncertainty_black,uncertainty,black,monitoring,13,1,CLICKED,2369,"","",,,,991,6,ASSUMED_HOSTILE,,201,563,5,ASSUMED_FRIEND,1,5,ASSUMED_FRIEND,201,563,0,1,FALSE,6,5,1,1,3,0,2,5,7,6,0,0,24,1
6,uncertainty_black,uncertainty,black,monitoring,14,1,CLICKED,1177,"","",,,,508,5,ASSUMED_FRIEND,,166,470,2,FRIEND,1,2,FRIEND,166,470,0,1,FALSE,5,2,1,1,3,0,2,6,6,6,0,0,24,1
6,uncertainty_black,uncertainty,black,monitoring,15,1,CLICKED,1076,"","",,,,1036,1,UNKNOWN,,518,256,2,FRIEND,4,2,FRIEND,518,256,0,1,FALSE,1,2,4,1,3,0,1,7,6,6,0,0,24,1
6,uncertainty_black,uncertainty,black,monitoring,16,1,CLICKED,1747,"","",,,,1101,4,HOSTILE,,442,518,5,ASSUMED_FRIEND,11,5,ASSUMED_FRIEND,442,518,0,1,FALSE,4,5,11,0,3,0,1,7,7,6,0,0,24,1
6,uncertainty_black,uncertainty,black,monitoring,17,1,CLICKED,1135,"","",,,,1836,1,UNKNOWN,,455,377,2,FRIEND,5,2,FRIEND,455,377,0,1,FALSE,1,2,5,0,3,0,0,8,7,6,0,0,24,1
6,uncertainty_black,uncertainty,black,monitoring,18,1,CLICKED,862,"","",,,,932,6,ASSUMED_HOSTILE,,263,239,4,HOSTILE,18,4,HOSTILE,263,239,0,1,FALSE,6,4,18,1,3,0,0,8,7,5,0,0,24,1
6,uncertainty_black,uncertainty,black,monitoring,19,1,CLICKED,975,"","",,,,719,6,ASSUMED_HOSTILE,,125,295,5,ASSUMED_FRIEND,19,5,ASSUMED_FRIEND,125,295,0,1,FALSE,6,5,19,1,3,0,0,8,8,4,0,0,24,1
6,uncertainty_black,uncertainty,black,monitoring,20,1,CLICKED,946,"","",,,,1295,5,ASSUMED_FRIEND,,376,501,6,ASSUMED_HOSTILE,11,6,ASSUMED_HOSTILE,376,501,0,1,FALSE,5,6,11,1,3,0,0,8,7,5,0,0,24,1
6,uncertainty_black,uncertainty,black,monitoring,21,1,CLICKED,710,"","",,,,1497,5,ASSUMED_FRIEND,,373,626,1,UNKNOWN,12,1,UNKNOWN,373,626,0,1,FALSE,5,1,12,1,3,0,1,8,6,5,0,0,24,1
6,uncertainty_black,uncertainty,black,monitoring,22,1,CLICKED,1134,"","",,,,1925,5,ASSUMED_FRIEND,,424,387,2,FRIEND,13,2,FRIEND,424,387,0,1,FALSE,5,2,13,1,3,0,1,9,5,5,0,0,24,1
6,uncertainty_black,uncertainty,black,monitoring,23,1,CLICKED,1121,"","",,,,1514,6,ASSUMED_HOSTILE,,378,550,2,FRIEND,11,2,FRIEND,378,550,0,1,FALSE,6,2,11,1,3,0,1,10,5,4,0,0,24,1
6,uncertainty_black,uncertainty,black,monitoring,24,0,CLICKED,4092,"","",,,,1890,1,UNKNOWN,,264,126,6,ASSUMED_HOSTILE,12,3,NEUTRAL,403,591,0,1,FALSE,1,3,20,1,4,0,0,10,5,4,0,0,24,1
6,uncertainty_black,uncertainty,black,monitoring,25,1,CLICKED,1194,"","",,,,1633,2,FRIEND,,772,166,1,UNKNOWN,0,1,UNKNOWN,772,166,0,1,FALSE,2,1,0,1,4,0,1,9,5,4,0,0,24,1
6,uncertainty_black,uncertainty,black,monitoring,26,1,CLICKED,1023,"","",,,,1340,5,ASSUMED_FRIEND,,254,372,4,HOSTILE,14,4,HOSTILE,254,372,0,1,FALSE,5,4,14,2,4,0,1,9,4,4,0,0,24,1
6,uncertainty_black,uncertainty,black,monitoring,27,1,CLICKED,1099,"","",,,,1782,1,UNKNOWN,,15,476,6,ASSUMED_HOSTILE,0,6,ASSUMED_HOSTILE,15,476,0,1,FALSE,1,6,0,2,4,0,0,9,4,5,0,0,24,1
6,uncertainty_black,uncertainty,black,monitoring,28,0,TIMEOUT,,"","",,,,1446,6,ASSUMED_HOSTILE,,,,,,0,4,HOSTILE,223,526,0,1,FALSE,6,4,,3,4,0,0,9,4,4,0,0,24,1
6,uncertainty_black,uncertainty,black,monitoring,29,1,CLICKED,913,"","",,,,1988,3,NEUTRAL,,443,593,1,UNKNOWN,2,1,UNKNOWN,443,593,0,1,FALSE,3,1,2,3,3,0,1,9,4,4,0,0,24,1
6,uncertainty_black,uncertainty,black,monitoring,30,1,CLICKED,868,"","",,,,1885,1,UNKNOWN,,395,612,5,ASSUMED_FRIEND,2,5,ASSUMED_FRIEND,395,612,0,1,FALSE,1,5,2,3,3,0,0,9,5,4,0,0,24,1
7,uncertainty_black,uncertainty,black,monitoring,1,0,TIMEOUT,,"","",,,,881,1,UNKNOWN,,,,,,0,4,HOSTILE,167,625,0,1,FALSE,1,4,,3,2,0,5,2,6,6,0,0,24,1
7,uncertainty_black,uncertainty,black,monitoring,2,1,CLICKED,960,"","",,,,1613,1,UNKNOWN,,95,377,4,HOSTILE,1,4,HOSTILE,95,377,0,1,FALSE,1,4,1,4,2,0,4,2,6,6,0,0,24,1
7,uncertainty_black,uncertainty,black,monitoring,3,1,CLICKED,1075,"","",,,,1737,1,UNKNOWN,,255,516,5,ASSUMED_FRIEND,2,5,ASSUMED_FRIEND,255,516,0,1,FALSE,1,5,2,4,2,0,3,2,7,6,0,0,24,1
7,uncertainty_black,uncertainty,black,monitoring,4,1,CLICKED,951,"","",,,,819,3,NEUTRAL,,399,690,4,HOSTILE,8,4,HOSTILE,399,690,0,1,FALSE,3,4,8,5,1,0,3,2,7,6,0,0,24,1
7,uncertainty_black,uncertainty,black,monitoring,5,1,CLICKED,860,"","",,,,780,5,ASSUMED_FRIEND,,256,517,3,NEUTRAL,2,3,NEUTRAL,256,517,0,1,FALSE,5,3,2,5,2,0,3,2,6,6,0,0,24,1
7,uncertainty_black,uncertainty,black,monitoring,6,1,CLICKED,1307,"","",,,,1693,1,UNKNOWN,,197,255,6,ASSUMED_HOSTILE,3,6,ASSUMED_HOSTILE,197,255,0,1,FALSE,1,6,3,5,2,0,2,2,6,7,0,0,24,1
7,uncertainty_black,uncertainty,black,monitoring,7,0,TIMEOUT,,"","",,,,964,3,NEUTRAL,,,,,,2,2,FRIEND,386,507,0,1,FALSE,3,2,,5,1,0,2,3,6,7,0,0,24,1
7,uncertainty_black,uncertainty,black,monitoring,8,1,CLICKED,793,"","",,,,894,6,ASSUMED_HOSTILE,,226,416,1,UNKNOWN,3,1,UNKNOWN,226,416,0,1,FALSE,6,1,3,5,1,0,3,3,6,6,0,0,24,1
7,uncertainty_black,uncertainty,black,monitoring,9,1,CLICKED,911,"","",,,,1680,5,ASSUMED_FRIEND,,537,353,4,HOSTILE,12,4,HOSTILE,537,353,0,1,FALSE,5,4,12,6,1,0,3,3,5,6,0,0,24,1
7,uncertainty_black,uncertainty,black,monitoring,10,1,CLICKED,836,"","",,,,1838,2,FRIEND,,242,484,6,ASSUMED_HOSTILE,2,6,ASSUMED_HOSTILE,242,484,0,1,FALSE,2,6,2,6,1,0,3,2,5,7,0,0,24,1
7,uncertainty_black,uncertainty,black,monitoring,11,1,CLICKED,787,"","",,,,1914,6,ASSUMED_HOSTILE,,137,408,3,NEUTRAL,2,3,NEUTRAL,137,408,0,1,FALSE,6,3,2,6,2,0,3,2,5,6,0,0,24,1
7,uncertainty_black,uncertainty,black,monitoring,12,1,CLICKED,707,"","",,,,1464,6,ASSUMED_HOSTILE,,370,312,3,NEUTRAL,18,3,NEUTRAL,370,312,0,1,FALSE,6,3,18,6,3,0,3,2,5,5,0,0,24,1
7,uncertainty_black,uncertainty,black,monitoring,13,1,CLICKED,1526,"","",,,,1531,1,UNKNOWN,,507,480,4,HOSTILE,3,4,HOSTILE,507,480,0,1,FALSE,1,4,3,7,3,0,2,2,5,5,0,0,24,1
7,uncertainty_black,uncertainty,black,monitoring,14,1,CLICKED,824,"","",,,,558,2,FRIEND,,361,253,4,HOSTILE,6,4,HOSTILE,361,253,0,1,FALSE,2,4,6,8,3,0,2,1,5,5,0,0,24,1
7,uncertainty_black,uncertainty,black,monitoring,15,1,CLICKED,1749,"","",,,,1269,5,ASSUMED_FRIEND,,702,478,4,HOSTILE,13,4,HOSTILE,702,478,0,1,FALSE,5,4,13,9,3,0,2,1,4,5,0,0,24,1
7,uncertainty_black,uncertainty,black,monitoring,16,1,CLICKED,923,"","",,,,1977,6,ASSUMED_HOSTILE,,339,263,2,FRIEND,19,2,FRIEND,339,263,0,1,FALSE,6,2,19,9,3,0,2,2,4,4,0,0,24,1
7,uncertainty_black,uncertainty,black,monitoring,17,0,TIMEOUT,,"","",,,,1524,1,UNKNOWN,,,,,,4,2,FRIEND,528,610,0,1,FALSE,1,2,,9,3,0,1,3,4,4,0,0,24,1
7,uncertainty_black,uncertainty,black,monitoring,18,1,CLICKED,779,"","",,,,1527,5,ASSUMED_FRIEND,,536,296,1,UNKNOWN,14,1,UNKNOWN,536,296,0,1,FALSE,5,1,14,9,3,0,2,3,3,4,0,0,24,1
7,uncertainty_black,uncertainty,black,monitoring,19,1,CLICKED,1114,"","",,,,1945,5,ASSUMED_FRIEND,,238,571,6,ASSUMED_HOSTILE,15,6,ASSUMED_HOSTILE,238,571,0,1,FALSE,5,6,15,9,3,0,2,3,2,5,0,0,24,1
7,uncertainty_black,uncertainty,black,monitoring,20,1,CLICKED,1811,"","",,,,1827,5,ASSUMED_FRIEND,,142,238,1,UNKNOWN,16,1,UNKNOWN,142,238,0,1,FALSE,5,1,16,9,3,0,3,3,1,5,0,0,24,1
7,uncertainty_black,uncertainty,black,monitoring,21,0,TIMEOUT,,"","",,,,615,5,ASSUMED_FRIEND,,,,,,17,4,HOSTILE,195,356,0,1,FALSE,5,4,,10,3,0,3,3,0,5,0,0,24,1
7,uncertainty_black,uncertainty,black,monitoring,22,1,CLICKED,749,"","",,,,509,3,NEUTRAL,,415,317,5,ASSUMED_FRIEND,2,5,ASSUMED_FRIEND,415,317,0,1,FALSE,3,5,2,10,2,0,3,3,1,5,0,0,24,1
7,uncertainty_black,uncertainty,black,monitoring,23,1,CLICKED,955,"","",,,,1916,1,UNKNOWN,,290,160,6,ASSUMED_HOSTILE,5,6,ASSUMED_HOSTILE,290,160,0,1,FALSE,1,6,5,10,2,0,2,3,1,6,0,0,24,1
7,uncertainty_black,uncertainty,black,monitoring,24,1,CLICKED,793,"","",,,,1780,5,ASSUMED_FRIEND,,300,375,6,ASSUMED_HOSTILE,2,6,ASSUMED_HOSTILE,300,375,0,1,FALSE,5,6,2,10,2,0,2,3,0,7,0,0,24,1
7,uncertainty_black,uncertainty,black,monitoring,25,1,CLICKED,1083,"","",,,,829,1,UNKNOWN,,340,118,5,ASSUMED_FRIEND,14,5,ASSUMED_FRIEND,340,118,0,1,FALSE,1,5,14,10,2,0,1,3,1,7,0,0,24,1
7,uncertainty_black,uncertainty,black,monitoring,26,1,CLICKED,690,"","",,,,1494,6,ASSUMED_HOSTILE,,435,368,2,FRIEND,2,2,FRIEND,435,368,0,1,FALSE,6,2,2,10,2,0,1,4,1,6,0,0,24,1
7,uncertainty_black,uncertainty,black,monitoring,27,1,CLICKED,970,"","",,,,1917,6,ASSUMED_HOSTILE,,186,286,5,ASSUMED_FRIEND,5,5,ASSUMED_FRIEND,186,286,0,1,FALSE,6,5,5,10,2,0,1,4,2,5,0,0,24,1
7,uncertainty_black,uncertainty,black,monitoring,28,0,TIMEOUT,,"","",,,,691,4,HOSTILE,,,,,,0,1,UNKNOWN,555,481,0,1,FALSE,4,1,,9,2,0,2,4,2,5,0,0,24,1
7,uncertainty_black,uncertainty,black,monitoring,29,1,CLICKED,901,"","",,,,1774,2,FRIEND,,426,188,3,NEUTRAL,2,3,NEUTRAL,426,188,0,1,FALSE,2,3,2,9,3,0,2,3,2,5,0,0,24,1
7,uncertainty_black,uncertainty,black,monitoring,30,1,CLICKED,804,"","",,,,1724,5,ASSUMED_FRIEND,,91,328,3,NEUTRAL,5,3,NEUTRAL,91,328,0,1,FALSE,5,3,5,9,4,0,2,3,1,5,0,0,24,1
8,control_radar,control,radar,monitoring,1,0,CLICKED,4511,"","",,,,859,1,UNKNOWN,,519,503,2,FRIEND,0,4,HOSTILE,591,388,0,1,FALSE,1,4,6,3,2,0,5,2,6,6,0,0,24,1
8,control_radar,control,radar,monitoring,2,0,CLICKED,379,"","",,,,1605,6,ASSUMED_HOSTILE,,399,553,5,ASSUMED_FRIEND,18,5,ASSUMED_FRIEND,552,543,0,1,FALSE,6,5,13,3,2,0,5,2,7,5,0,0,24,1
8,control_radar,control,radar,monitoring,3,0,CLICKED,3983,"","",,,,727,5,ASSUMED_FRIEND,,610,628,5,ASSUMED_FRIEND,12,1,UNKNOWN,208,240,0,1,FALSE,5,1,13,3,2,0,6,2,6,5,0,0,24,1
8,control_radar,control,radar,monitoring,4,0,CLICKED,1114,"","",,,,1552,1,UNKNOWN,,231,543,5,ASSUMED_FRIEND,1,2,FRIEND,258,283,0,1,FALSE,1,2,16,3,2,0,5,3,6,5,0,0,24,1
8,control_radar,control,radar,monitoring,5,0,CLICKED,2168,"","",,,,1777,6,ASSUMED_HOSTILE,,160,452,2,FRIEND,19,2,FRIEND,383,525,0,1,FALSE,6,2,1,3,2,0,5,4,6,4,0,0,24,1
8,control_radar,control,radar,monitoring,6,0,CLICKED,1960,"","",,,,651,6,ASSUMED_HOSTILE,,516,225,3,NEUTRAL,20,1,UNKNOWN,279,532,0,1,FALSE,6,1,9,3,2,0,6,4,6,3,0,0,24,1
8,control_radar,control,radar,monitoring,7,0,CLICKED,1630,"","",,,,598,1,UNKNOWN,,125,565,2,FRIEND,2,5,ASSUMED_FRIEND,489,493,0,1,FALSE,1,5,1,3,2,0,5,4,7,3,0,0,24,1
8,control_radar,control,radar,monitoring,8,0,CLICKED,1231,"","",,,,1098,1,UNKNOWN,,233,674,5,ASSUMED_FRIEND,3,6,ASSUMED_HOSTILE,48,416,0,1,FALSE,1,6,16,3,2,0,4,4,7,4,0,0,24,1
8,control_radar,control,radar,monitoring,9,0,CLICKED,2913,"","",,,,1914,6,ASSUMED_HOSTILE,,341,259,2,FRIEND,3,3,NEUTRAL,120,312,0,1,FALSE,6,3,7,3,3,0,4,4,7,3,0,0,24,1
8,control_radar,control,radar,monitoring,10,0,CLICKED,3332,"","",,,,1602,5,ASSUMED_FRIEND,,510,478,6,ASSUMED_HOSTILE,2,3,NEUTRAL,338,642,0,1,FALSE,5,3,21,3,4,0,4,4,6,3,0,0,24,1
8,control_radar,control,radar,monitoring,11,0,CLICKED,2216,"","",,,,1979,2,FRIEND,,605,369,5,ASSUMED_FRIEND,1,5,ASSUMED_FRIEND,391,682,0,1,FALSE,2,5,13,3,4,0,4,3,7,3,0,0,24,1
8,control_radar,control,radar,monitoring,12,0,CLICKED,1841,"","",,,,1454,1,UNKNOWN,,283,504,3,NEUTRAL,4,3,NEUTRAL,658,358,0,1,FALSE,1,3,2,3,5,0,3,3,7,3,0,0,24,1
8,control_radar,control,radar,monitoring,13,0,CLICKED,4168,"","",,,,669,3,NEUTRAL,,406,545,5,ASSUMED_FRIEND,2,2,FRIEND,82,576,0,1,FALSE,3,2,18,3,4,0,3,4,7,3,0,0,24,1
8,control_radar,control,radar,monitoring,14,0,CLICKED,4411,"","",,,,1935,1,UNKNOWN,,422,439,5,ASSUMED_FRIEND,5,5,ASSUMED_FRIEND,543,567,0,1,FALSE,1,5,13,3,4,0,2,4,8,3,0,0,24,1
8,control_radar,control,radar,monitoring,15,0,CLICKED,2200,"","",,,,1830,6,ASSUMED_HOSTILE,,490,624,5,ASSUMED_FRIEND,21,2,FRIEND,489,357,0,1,FALSE,6,2,5,3,4,0,2,5,8,2,0,0,24,1
8,control_radar,control,radar,monitoring,16,0,CLICKED,756,"","",,,,1706,4,HOSTILE,,488,276,5,ASSUMED_FRIEND,0,3,NEUTRAL,136,222,0,1,FALSE,4,3,17,2,5,0,2,5,8,2,0,0,24,1
8,control_radar,control,radar,monitoring,17,0,CLICKED,1810,"","",,,,1952,1,UNKNOWN,,507,245,2,FRIEND,12,3,NEUTRAL,318,380,0,1,FALSE,1,3,21,2,6,0,1,5,8,2,0,0,24,1
8,control_radar,control,radar,monitoring,18,1,CLICKED,3825,"","",,,,784,2,FRIEND,,111,642,6,ASSUMED_HOSTILE,2,6,ASSUMED_HOSTILE,111,642,0,1,FALSE,2,6,2,2,6,0,1,4,8,3,0,0,24,1
8,control_radar,control,radar,monitoring,19,0,TIMEOUT,,"","",,,,997,6,ASSUMED_HOSTILE,,,,,,2,2,FRIEND,35,551,0,1,FALSE,6,2,,2,6,0,1,5,8,2,0,0,24,1
8,control_radar,control,radar,monitoring,20,0,CLICKED,1619,"","",,,,1742,6,ASSUMED_HOSTILE,,143,633,2,FRIEND,22,4,HOSTILE,229,153,0,1,FALSE,6,4,2,3,6,0,1,5,8,1,0,0,24,1
8,control_radar,control,radar,monitoring,21,1,CLICKED,1262,"","",,,,647,5,ASSUMED_FRIEND,,306,390,6,ASSUMED_HOSTILE,1,6,ASSUMED_HOSTILE,306,390,0,1,FALSE,5,6,1,3,6,0,1,5,7,2,0,0,24,1
8,control_radar,control,radar,monitoring,22,1,CLICKED,1151,"","",,,,1303,5,ASSUMED_FRIEND,,221,424,6,ASSUMED_HOSTILE,5,6,ASSUMED_HOSTILE,221,424,0,1,FALSE,5,6,5,3,6,0,1,5,6,3,0,0,24,1
8,control_radar,control,radar,monitoring,23,0,CLICKED,4347,"","",,,,624,5,ASSUMED_FRIEND,,315,550,6,ASSUMED_HOSTILE,13,2,FRIEND,632,33,0,1,FALSE,5,2,5,3,6,0,1,6,5,3,0,0,24,1
8,control_radar,control,radar,monitoring,24,0,CLICKED,4557,"","",,,,1235,5,ASSUMED_FRIEND,,463,579,2,FRIEND,14,1,UNKNOWN,41,479,0,1,FALSE,5,1,7,3,6,0,2,6,4,3,0,0,24,1
8,control_radar,control,radar,monitoring,25,0,CLICKED,1950,"","",,,,1535,1,UNKNOWN,,376,547,3,NEUTRAL,14,3,NEUTRAL,160,699,0,1,FALSE,1,3,3,3,7,0,1,6,4,3,0,0,24,1
8,control_radar,control,radar,monitoring,26,0,CLICKED,3330,"","",,,,1218,5,ASSUMED_FRIEND,,494,491,5,ASSUMED_FRIEND,15,2,FRIEND,242,620,0,1,FALSE,5,2,16,3,7,0,1,7,3,3,0,0,24,1
8,control_radar,control,radar,monitoring,27,0,CLICKED,2990,"","",,,,853,6,ASSUMED_HOSTILE,,535,210,2,FRIEND,1,2,FRIEND,34,536,0,1,FALSE,6,2,21,3,7,0,1,8,3,2,0,0,24,1
8,control_radar,control,radar,monitoring,28,0,CLICKED,2422,"","",,,,1736,6,ASSUMED_HOSTILE,,487,330,3,NEUTRAL,5,1,UNKNOWN,626,185,0,1,FALSE,6,1,3,3,7,0,2,8,3,1,0,0,24,1
8,control_radar,control,radar,monitoring,29,0,CLICKED,1642,"","",,,,1404,1,UNKNOWN,,52,461,2,FRIEND,5,2,FRIEND,603,75,0,1,FALSE,1,2,1,3,7,0,1,9,3,1,0,0,24,1
8,control_radar,control,radar,monitoring,30,0,CLICKED,3076,"","",,,,733,5,ASSUMED_FRIEND,,515,317,4,HOSTILE,16,3,NEUTRAL,598,282,0,1,FALSE,5,3,11,3,8,0,1,9,2,1,0,0,24,1
9,control_radar,control,radar,monitoring,1,0,CLICKED,220,"","",,,,1774,1,UNKNOWN,,385,370,3,NEUTRAL,0,4,HOSTILE,87,710,0,1,FALSE,1,4,8,3,2,0,5,2,6,6,0,0,24,1
9,control_radar,control,radar,monitoring,2,0,TIMEOUT,,"","",,,,1129,1,UNKNOWN,,,,,,1,4,HOSTILE,645,337,0,1,FALSE,1,4,,4,2,0,4,2,6,6,0,0,24,1
9,control_radar,control,radar,monitoring,3,0,TIMEOUT,,"","",,,,899,1,UNKNOWN,,,,,,2,5,ASSUMED_FRIEND,213,375,0,1,FALSE,1,5,,4,2,0,3,2,7,6,0,0,24,1
9,control_radar,control,radar,monitoring,4,0,TIMEOUT,,"","",,,,1380,3,NEUTRAL,,,,,,8,4,HOSTILE,549,421,0,1,FALSE,3,4,,5,1,0,3,2,7,6,0,0,24,1
9,control_radar,control,radar,monitoring,5,1,CLICKED,1158,"","",,,,1329,5,ASSUMED_FRIEND,,261,489,3,NEUTRAL,2,3,NEUTRAL,261,489,0,1,FALSE,5,3,2,5,2,0,3,2,6,6,0,0,24,1
9,control_radar,control,radar,monitoring,6,0,TIMEOUT,,"","",,,,1006,1,UNKNOWN,,,,,,3,6,ASSUMED_HOSTILE,480,304,0,1,FALSE,1,6,,5,2,0,2,2,6,7,0,0,24,1
9,control_radar,control,radar,monitoring,7,0,TIMEOUT,,"","",,,,1896,3,NEUTRAL,,,,,,2,2,FRIEND,540,406,0,1,FALSE,3,2,,5,1,0,2,3,6,7,0,0,24,1
9,control_radar,control,radar,monitoring,8,0,TIMEOUT,,"","",,,,967,6,ASSUMED_HOSTILE,,,,,,3,1,UNKNOWN,687,293,0,1,FALSE,6,1,,5,1,0,3,3,6,6,0,0,24,1
9,control_radar,control,radar,monitoring,9,1,CLICKED,1264,"","",,,,1944,5,ASSUMED_FRIEND,,88,241,4,HOSTILE,12,4,HOSTILE,88,241,0,1,FALSE,5,4,12,6,1,0,3,3,5,6,0,0,24,1
9,control_radar,control,radar,monitoring,10,0,TIMEOUT,,"","",,,,1821,2,FRIEND,,,,,,2,6,ASSUMED_HOSTILE,217,612,0,1,FALSE,2,6,,6,1,0,3,2,5,7,0,0,24,1
9,control_radar,control,radar,monitoring,11,0,CLICKED,304,"","",,,,1098,6,ASSUMED_HOSTILE,,218,5,4,HOSTILE,2,3,NEUTRAL,131,650,0,1,FALSE,6,3,1,6,2,0,3,2,5,6,0,0,24,1
9,control_radar,control,radar,monitoring,12,0,TIMEOUT,,"","",,,,1626,6,ASSUMED_HOSTILE,,,,,,18,3,NEUTRAL,143,396,0,1,FALSE,6,3,,6,3,0,3,2,5,5,0,0,24,1
9,control_radar,control,radar,monitoring,13,0,TIMEOUT,,"","",,,,685,1,UNKNOWN,,,,,,3,4,HOSTILE,171,466,0,1,FALSE,1,4,,7,3,0,2,2,5,5,0,0,24,1
9,control_radar,control,radar,monitoring,14,0,CLICKED,140,"","",,,,1368,2,FRIEND,,145,75,1,UNKNOWN,6,4,HOSTILE,423,614,0,1,FALSE,2,4,5,8,3,0,2,1,5,5,0,0,24,1
9,control_radar,control,radar,monitoring,15,0,TIMEOUT,,"","",,,,1409,5,ASSUMED_FRIEND,,,,,,13,4,HOSTILE,363,335,0,1,FALSE,5,4,,9,3,0,2,1,4,5,0,0,24,1
9,control_radar,control,radar,monitoring,16,0,TIMEOUT,,"","",,,,1998,6,ASSUMED_HOSTILE,,,,,,19,2,FRIEND,261,550,0,1,FALSE,6,2,,9,3,0,2,2,4,4,0,0,24,1
9,control_radar,control,radar,monitoring,17,0,TIMEOUT,,"","",,,,1947,1,UNKNOWN,,,,,,4,2,FRIEND,460,633,0,1,FALSE,1,2,,9,3,0,1,3,4,4,0,0,24,1
9,control_radar,control,radar,monitoring,18,1,CLICKED,592,"","",,,,1546,5,ASSUMED_FRIEND,,463,69,1,UNKNOWN,14,1,UNKNOWN,463,69,0,1,FALSE,5,1,14,9,3,0,2,3,3,4,0,0,24,1
9,control_radar,control,radar,monitoring,19,0,TIMEOUT,,"","",,,,1774,5,ASSUMED_FRIEND,,,,,,15,6,ASSUMED_HOSTILE,544,584,0,1,FALSE,5,6,,9,3,0,2,3,2,5,0,0,24,1
9,control_radar,control,radar,monitoring,20,0,TIMEOUT,,"","",,,,1086,5,ASSUMED_FRIEND,,,,,,16,1,UNKNOWN,468,376,0,1,FALSE,5,1,,9,3,0,3,3,1,5,0,0,24,1
9,control_radar,control,radar,monitoring,21,0,CLICKED,786,"","",,,,769,5,ASSUMED_FRIEND,,686,655,3,NEUTRAL,17,4,HOSTILE,365,541,0,1,FALSE,5,4,18,10,3,0,3,3,0,5,0,0,24,1
9,control_radar,control,radar,monitoring,22,0,TIMEOUT,,"","",,,,593,3,NEUTRAL,,,,,,2,5,ASSUMED_FRIEND,451,445,0,1,FALSE,3,5,,10,2,0,3,3,1,5,0,0,24,1
9,control_radar,control,radar,monitoring,23,0,TIMEOUT,,"","",,,,884,1,UNKNOWN,,,,,,5,6,ASSUMED_HOSTILE,248,277,0,1,FALSE,1,6,,10,2,0,2,3,1,6,0,0,24,1
9,control_radar,control,radar,monitoring,24,0,TIMEOUT,,"","",,,,978,5,ASSUMED_FRIEND,,,,,,2,6,ASSUMED_HOSTILE,252,575,0,1,FALSE,5,6,,10,2,0,2,3,0,7,0,0,24,1
9,control_radar,control,radar,monitoring,25,1,CLICKED,1074,"","",,,,1660,1,UNKNOWN,,258,599,5,ASSUMED_FRIEND,14,5,ASSUMED_FRIEND,258,599,0,1,FALSE,1,5,14,10,2,0,1,3,1,7,0,0,24,1
9,control_radar,control,radar,monitoring,26,0,TIMEOUT,,"","",,,,907,6,ASSUMED_HOSTILE,,,,,,2,2,FRIEND,161,461,0,1,FALSE,6,2,,10,2,0,1,4,1,6,0,0,24,1
9,control_radar,control,radar,monitoring,27,1,CLICKED,3066,"","",,,,1448,6,ASSUMED_HOSTILE,,743,148,5,ASSUMED_FRIEND,5,5,ASSUMED_FRIEND,743,148,0,1,FALSE,6,5,5,10,2,0,1,4,2,5,0,0,24,1
9,control_radar,control,radar,monitoring,28,0,TIMEOUT,,"","",,,,1290,4,HOSTILE,,,,,,0,1,UNKNOWN,263,324,0,1,FALSE,4,1,,9,2,0,2,4,2,5,0,0,24,1
9,control_radar,control,radar,monitoring,29,0,TIMEOUT,,"","",,,,926,2,FRIEND,,,,,,2,3,NEUTRAL,85,318,0,1,FALSE,2,3,,9,3,0,2,3,2,5,0,0,24,1
9,control_radar,control,radar,monitoring,30,0,CLICKED,632,"","",,,,1055,5,ASSUMED_FRIEND,,427,427,5,ASSUMED_FRIEND,5,3,NEUTRAL,594,695,0,1,FALSE,5,3,14,9,4,0,2,3,1,5,0,0,24,1
10,categorical_radar,categorical,radar,monitoring,1,1,CLICKED,1014,"","",,,,1530,4,HOSTILE,,193,460,2,FRIEND,10,2,FRIEND,193,460,0,1,FALSE,4,2,10,1,2,0,6,3,6,6,0,0,24,1
10,categorical_radar,categorical,radar,monitoring,2,0,TIMEOUT,,"","",,,,633,1,UNKNOWN,,,,,,0,6,ASSUMED_HOSTILE,662,598,0,1,FALSE,1,6,,1,2,0,5,3,6,7,0,0,24,1
10,categorical_radar,categorical,radar,monitoring,3,0,TIMEOUT,,"","",,,,1794,1,UNKNOWN,,,,,,1,5,ASSUMED_FRIEND,265,450,0,1,FALSE,1,5,,1,2,0,4,3,7,7,0,0,24,1
10,categorical_radar,categorical,radar,monitoring,4,0,TIMEOUT,,"","",,,,1046,2,FRIEND,,,,,,6,5,ASSUMED_FRIEND,576,736,0,1,FALSE,2,5,,1,2,0,4,2,8,7,0,0,24,1
10,categorical_radar,categorical,radar,monitoring,5,0,TIMEOUT,,"","",,,,1239,1,UNKNOWN,,,,,,2,5,ASSUMED_FRIEND,673,199,0,1,FALSE,1,5,,1,2,0,3,2,9,7,0,0,24,1
10,categorical_radar,categorical,radar,monitoring,6,1,CLICKED,1104,"","",,,,1995,5,ASSUMED_FRIEND,,436,398,6,ASSUMED_HOSTILE,1,6,ASSUMED_HOSTILE,436,398,0,1,FALSE,5,6,1,1,2,0,3,2,8,8,0,0,24,1
10,categorical_radar,categorical,radar,monitoring,7,0,TIMEOUT,,"","",,,,566,5,ASSUMED_FRIEND,,,,,,2,3,NEUTRAL,514,324,0,1,FALSE,5,3,,1,3,0,3,2,7,8,0,0,24,1
10,categorical_radar,categorical,radar,monitoring,8,0,TIMEOUT,,"","",,,,1434,6,ASSUMED_HOSTILE,,,,,,0,3,NEUTRAL,549,243,0,1,FALSE,6,3,,1,4,0,3,2,7,7,0,0,24,1
10,categorical_radar,categorical,radar,monitoring,9,0,TIMEOUT,,"","",,,,1663,3,NEUTRAL,,,,,,0,5,ASSUMED_FRIEND,534,307,0,1,FALSE,3,5,,1,3,0,3,2,8,7,0,0,24,1
10,categorical_radar,categorical,radar,monitoring,10,0,TIMEOUT,,"","",,,,1516,1,UNKNOWN,,,,,,3,2,FRIEND,406,158,0,1,FALSE,1,2,,1,3,0,2,3,8,7,0,0,24,1
10,categorical_radar,categorical,radar,monitoring,11,1,CLICKED,2530,"","",,,,817,5,ASSUMED_FRIEND,,561,317,2,FRIEND,0,2,FRIEND,561,317,0,1,FALSE,5,2,0,1,3,0,2,4,7,7,0,0,24,1
10,categorical_radar,categorical,radar,monitoring,12,0,TIMEOUT,,"","",,,,866,5,ASSUMED_FRIEND,,,,,,6,2,FRIEND,280,688,0,1,FALSE,5,2,,1,3,0,2,5,6,7,0,0,24,1
10,categorical_radar,categorical,radar,monitoring,13,0,TIMEOUT,,"","",,,,786,6,ASSUMED_HOSTILE,,,,,,1,5,ASSUMED_FRIEND,584,179,0,1,FALSE,6,5,,1,3,0,2,5,7,6,0,0,24,1
10,categorical_radar,categorical,radar,monitoring,14,0,TIMEOUT,,"","",,,,1024,5,ASSUMED_FRIEND,,,,,,1,2,FRIEND,519,155,0,1,FALSE,5,2,,1,3,0,2,6,6,6,0,0,24,1
10,categorical_radar,categorical,radar,monitoring,15,0,TIMEOUT,,"","",,,,741,1,UNKNOWN,,,,,,4,2,FRIEND,356,470,0,1,FALSE,1,2,,1,3,0,1,7,6,6,0,0,24,1
10,categorical_radar,categorical,radar,monitoring,16,0,TIMEOUT,,"","",,,,738,4,HOSTILE,,,,,,11,5,ASSUMED_FRIEND,616,577,0,1,FALSE,4,5,,0,3,0,1,7,7,6,0,0,24,1
10,categorical_radar,categorical,radar,monitoring,17,0,TIMEOUT,,"","",,,,1449,1,UNKNOWN,,,,,,5,2,FRIEND,317,302,0,1,FALSE,1,2,,0,3,0,0,8,7,6,0,0,24,1
10,categorical_radar,categorical,radar,monitoring,18,0,TIMEOUT,,"","",,,,1222,6,ASSUMED_HOSTILE,,,,,,18,4,HOSTILE,370,172,0,1,FALSE,6,4,,1,3,0,0,8,7,5,0,0,24,1
10,categorical_radar,categorical,radar,monitoring,19,0,TIMEOUT,,"","",,,,933,6,ASSUMED_HOSTILE,,,,,,19,5,ASSUMED_FRIEND,190,418,0,1,FALSE,6,5,,1,3,0,0,8,8,4,0,0,24,1
10,categorical_radar,categorical,radar,monitoring,20,0,TIMEOUT,,"","",,,,703,5,ASSUMED_FRIEND,,,,,,11,6,ASSUMED_HOSTILE,568,350,0,1,FALSE,5,6,,1,3,0,0,8,7,5,0,0,24,1
10,categorical_radar,categorical,radar,monitoring,21,0,TIMEOUT,,"","",,,,1726,5,ASSUMED_FRIEND,,,,,,12,1,UNKNOWN,285,412,0,1,FALSE,5,1,,1,3,0,1,8,6,5,0,0,24,1
10,categorical_radar,categorical,radar,monitoring,22,0,CLICKED,2426,"","",,,,1484,5,ASSUMED_FRIEND,,254,318,2,FRIEND,13,2,FRIEND,268,227,0,1,FALSE,5,2,1,1,3,0,1,9,5,5,0,0,24,1
10,categorical_radar,categorical,radar,monitoring,23,0,TIMEOUT,,"","",,,,655,6,ASSUMED_HOSTILE,,,,,,11,2,FRIEND,544,401,0,1,FALSE,6,2,,1,3,0,1,10,5,4,0,0,24,1
10,categorical_radar,categorical,radar,monitoring,24,0,TIMEOUT,,"","",,,,1450,1,UNKNOWN,,,,,,12,3,NEUTRAL,231,350,0,1,FALSE,1,3,,1,4,0,0,10,5,4,0,0,24,1
10,categorical_radar,categorical,radar,monitoring,25,0,TIMEOUT,,"","",,,,1609,2,FRIEND,,,,,,0,1,UNKNOWN,372,313,0,1,FALSE,2,1,,1,4,0,1,9,5,4,0,0,24,1
10,categorical_radar,categorical,radar,monitoring,26,1,CLICKED,4135,"","",,,,665,5,ASSUMED_FRIEND,,187,404,4,HOSTILE,14,4,HOSTILE,187,404,0,1,FALSE,5,4,14,2,4,0,1,9,4,4,0,0,24,1
10,categorical_radar,categorical,radar,monitoring,27,0,TIMEOUT,,"","",,,,680,1,UNKNOWN,,,,,,0,6,ASSUMED_HOSTILE,291,292,0,1,FALSE,1,6,,2,4,0,0,9,4,5,0,0,24,1
10,categorical_radar,categorical,radar,monitoring,28,0,TIMEOUT,,"","",,,,1082,6,ASSUMED_HOSTILE,,,,,,0,4,HOSTILE,222,198,0,1,FALSE,6,4,,3,4,0,0,9,4,4,0,0,24,1
10,categorical_radar,categorical,radar,monitoring,29,0,TIMEOUT,,"","",,,,1697,3,NEUTRAL,,,,,,2,1,UNKNOWN,719,158,0,1,FALSE,3,1,,3,3,0,1,9,4,4,0,0,24,1
10,categorical_radar,categorical,radar,monitoring,30,0,TIMEOUT,,"","",,,,1733,1,UNKNOWN,,,,,,2,5,ASSUMED_FRIEND,739,99,0,1,FALSE,1,5,,3,3,0,0,9,5,4,0,0,24,1
11,categorical_radar,categorical,radar,monitoring,1,0,CLICKED,407,"","",,,,1823,6,ASSUMED_HOSTILE,,721,730,1,UNKNOWN,18,1,UNKNOWN,206,126,0,1,FALSE,6,1,0,2,2,0,7,2,6,5,0,0,24,1
11,categorical_radar,categorical,radar,monitoring,2,0,TIMEOUT,,"","",,,,1709,1,UNKNOWN,,,,,,0,3,NEUTRAL,333,671,0,1,FALSE,1,3,,2,3,0,6,2,6,5,0,0,24,1
11,categorical_radar,categorical,radar,monitoring,3,0,CLICKED,1019,"","",,,,815,6,ASSUMED_HOSTILE,,301,42,2,FRIEND,19,3,NEUTRAL,618,588,0,1,FALSE,6,3,6,2,4,0,6,2,6,4,0,0,24,1
11,categorical_radar,categorical,radar,monitoring,4,0,TIMEOUT,,"","",,,,792,1,UNKNOWN,,,,,,1,5,ASSUMED_FRIEND,475,256,0,1,FALSE,1,5,,2,4,0,5,2,7,4,0,0,24,1
11,categorical_radar,categorical,radar,monitoring,5,1,CLICKED,962,"","",,,,1405,6,ASSUMED_HOSTILE,,224,157,5,ASSUMED_FRIEND,20,5,ASSUMED_FRIEND,224,157,0,1,FALSE,6,5,20,2,4,0,5,2,8,3,0,0,24,1
11,categorical_radar,categorical,radar,monitoring,6,0,TIMEOUT,,"","",,,,1137,5,ASSUMED_FRIEND,,,,,,1,3,NEUTRAL,380,432,0,1,FALSE,5,3,,2,5,0,5,2,7,3,0,0,24,1
11,categorical_radar,categorical,radar,monitoring,7,1,CLICKED,1003,"","",,,,847,1,UNKNOWN,,400,469,6,ASSUMED_HOSTILE,2,6,ASSUMED_HOSTILE,400,469,0,1,FALSE,1,6,2,2,5,0,4,2,7,4,0,0,24,1
11,categorical_radar,categorical,radar,monitoring,8,1,CLICKED,936,"","",,,,1485,6,ASSUMED_HOSTILE,,488,441,1,UNKNOWN,2,1,UNKNOWN,488,441,0,1,FALSE,6,1,2,2,5,0,5,2,7,3,0,0,24,1
11,categorical_radar,categorical,radar,monitoring,9,0,TIMEOUT,,"","",,,,564,5,ASSUMED_FRIEND,,,,,,12,3,NEUTRAL,33,485,0,1,FALSE,5,3,,2,6,0,5,2,6,3,0,0,24,1
11,categorical_radar,categorical,radar,monitoring,10,1,CLICKED,791,"","",,,,1490,1,UNKNOWN,,349,305,6,ASSUMED_HOSTILE,2,6,ASSUMED_HOSTILE,349,305,0,1,FALSE,1,6,2,2,6,0,4,2,6,4,0,0,24,1
11,categorical_radar,categorical,radar,monitoring,11,0,TIMEOUT,,"","",,,,653,2,FRIEND,,,,,,6,5,ASSUMED_FRIEND,434,407,0,1,FALSE,2,5,,2,6,0,4,1,7,4,0,0,24,1
11,categorical_radar,categorical,radar,monitoring,12,0,CLICKED,2513,"","",,,,1765,5,ASSUMED_FRIEND,,715,731,3,NEUTRAL,6,6,ASSUMED_HOSTILE,636,581,0,1,FALSE,5,6,1,2,6,0,4,1,6,5,0,0,24,1
11,categorical_radar,categorical,radar,monitoring,13,0,TIMEOUT,,"","",,,,1881,1,UNKNOWN,,,,,,3,5,ASSUMED_FRIEND,436,397,0,1,FALSE,1,5,,2,6,0,3,1,7,5,0,0,24,1
11,categorical_radar,categorical,radar,monitoring,14,1,CLICKED,720,"","",,,,1008,5,ASSUMED_FRIEND,,431,322,6,ASSUMED_HOSTILE,3,6,ASSUMED_HOSTILE,431,322,0,1,FALSE,5,6,3,2,6,0,3,1,6,6,0,0,24,1
11,categorical_radar,categorical,radar,monitoring,15,0,TIMEOUT,,"","",,,,626,5,ASSUMED_FRIEND,,,,,,13,4,HOSTILE,547,35,0,1,FALSE,5,4,,3,6,0,3,1,5,6,0,0,24,1
11,categorical_radar,categorical,radar,monitoring,16,1,CLICKED,1160,"","",,,,1325,6,ASSUMED_HOSTILE,,237,480,4,HOSTILE,2,4,HOSTILE,237,480,0,1,FALSE,6,4,2,4,6,0,3,1,5,5,0,0,24,1
11,categorical_radar,categorical,radar,monitoring,17,1,CLICKED,871,"","",,,,1643,6,ASSUMED_HOSTILE,,395,321,2,FRIEND,3,2,FRIEND,395,321,0,1,FALSE,6,2,3,4,6,0,3,2,5,4,0,0,24,1
11,categorical_radar,categorical,radar,monitoring,18,0,CLICKED,1435,"","",,,,1936,6,ASSUMED_HOSTILE,,332,252,4,HOSTILE,6,1,UNKNOWN,505,281,0,1,FALSE,6,1,13,4,6,0,4,2,5,3,0,0,24,1
11,categorical_radar,categorical,radar,monitoring,19,1,CLICKED,936,"","",,,,1997,6,ASSUMED_HOSTILE,,244,325,2,FRIEND,21,2,FRIEND,244,325,0,1,FALSE,6,2,21,4,6,0,4,3,5,2,0,0,24,1
11,categorical_radar,categorical,radar,monitoring,20,0,TIMEOUT,,"","",,,,699,1,UNKNOWN,,,,,,4,3,NEUTRAL,445,379,0,1,FALSE,1,3,,4,7,0,3,3,5,2,0,0,24,1
11,categorical_radar,categorical,radar,monitoring,21,0,CLICKED,1448,"","",,,,1491,1,UNKNOWN,,309,556,4,HOSTILE,5,4,HOSTILE,246,369,0,1,FALSE,1,4,10,5,7,0,2,3,5,2,0,0,24,1
11,categorical_radar,categorical,radar,monitoring,22,0,TIMEOUT,,"","",,,,589,1,UNKNOWN,,,,,,6,4,HOSTILE,626,179,0,1,FALSE,1,4,,6,7,0,1,3,5,2,0,0,24,1
11,categorical_radar,categorical,radar,monitoring,23,0,TIMEOUT,,"","",,,,1477,4,HOSTILE,,,,,,2,3,NEUTRAL,377,401,0,1,FALSE,4,3,,5,8,0,1,3,5,2,0,0,24,1
11,categorical_radar,categorical,radar,monitoring,24,0,CLICKED,4874,"","",,,,953,5,ASSUMED_FRIEND,,411,538,1,UNKNOWN,14,2,FRIEND,222,470,0,1,FALSE,5,2,18,5,8,0,1,4,4,2,0,0,24,1
11,categorical_radar,categorical,radar,monitoring,25,0,CLICKED,4089,"","",,,,685,3,NEUTRAL,,595,458,2,FRIEND,0,5,ASSUMED_FRIEND,398,192,0,1,FALSE,3,5,3,5,7,0,1,4,5,2,0,0,24,1
11,categorical_radar,categorical,radar,monitoring,26,0,TIMEOUT,,"","",,,,789,3,NEUTRAL,,,,,,1,1,UNKNOWN,178,425,0,1,FALSE,3,1,,5,6,0,2,4,5,2,0,0,24,1
11,categorical_radar,categorical,radar,monitoring,27,0,TIMEOUT,,"","",,,,1260,1,UNKNOWN,,,,,,1,4,HOSTILE,280,386,0,1,FALSE,1,4,,6,6,0,1,4,5,2,0,0,24,1
11,categorical_radar,categorical,radar,monitoring,28,1,CLICKED,1366,"","",,,,1737,5,ASSUMED_FRIEND,,510,263,6,ASSUMED_HOSTILE,0,6,ASSUMED_HOSTILE,510,263,0,1,FALSE,5,6,0,6,6,0,1,4,4,3,0,0,24,1
11,categorical_radar,categorical,radar,monitoring,29,0,TIMEOUT,,"","",,,,1073,1,UNKNOWN,,,,,,18,3,NEUTRAL,435,378,0,1,FALSE,1,3,,6,7,0,0,4,4,3,0,0,24,1
11,categorical_radar,categorical,radar,monitoring,30,0,TIMEOUT,,"","",,,,1086,4,HOSTILE,,,,,,1,6,ASSUMED_HOSTILE,157,342,0,1,FALSE,4,6,,5,7,0,0,4,4,4,0,0,24,1
12,uncertainty_radar,uncertainty,radar,monitoring,1,0,TIMEOUT,,"","",,,,704,1,UNKNOWN,,,,,,0,4,HOSTILE,395,236,0,1,FALSE,1,4,,3,2,0,5,2,6,6,0,0,24,1
12,uncertainty_radar,uncertainty,radar,monitoring,2,0,TIMEOUT,,"","",,,,816,1,UNKNOWN,,,,,,1,4,HOSTILE,147,396,0,1,FALSE,1,4,,4,2,0,4,2,6,6,0,0,24,1
12,uncertainty_radar,uncertainty,radar,monitoring,3,1,CLICKED,1120,"","",,,,1115,1,UNKNOWN,,228,276,5,ASSUMED_FRIEND,2,5,ASSUMED_FRIEND,228,276,0,1,FALSE,1,5,2,4,2,0,3,2,7,6,0,0,24,1
12,uncertainty_radar,uncertainty,radar,monitoring,4,1,CLICKED,1286,"","",,,,854,3,NEUTRAL,,298,166,4,HOSTILE,8,4,HOSTILE,298,166,0,1,FALSE,3,4,8,5,1,0,3,2,7,6,0,0,24,1
12,uncertainty_radar,uncertainty,radar,monitoring,5,1,CLICKED,826,"","",,,,793,5,ASSUMED_FRIEND,,50,205,3,NEUTRAL,2,3,NEUTRAL,50,205,0,1,FALSE,5,3,2,5,2,0,3,2,6,6,0,0,24,1
12,uncertainty_radar,uncertainty,radar,monitoring,6,1,CLICKED,1173,"","",,,,1144,1,UNKNOWN,,599,489,6,ASSUMED_HOSTILE,3,6,ASSUMED_HOSTILE,599,489,0,1,FALSE,1,6,3,5,2,0,2,2,6,7,0,0,24,1
12,uncertainty_radar,uncertainty,radar,monitoring,7,1,CLICKED,1241,"","",,,,877,3,NEUTRAL,,29,112,2,FRIEND,2,2,FRIEND,29,112,0,1,FALSE,3,2,2,5,1,0,2,3,6,7,0,0,24,1
12,uncertainty_radar,uncertainty,radar,monitoring,8,1,CLICKED,1067,"","",,,,1010,6,ASSUMED_HOSTILE,,691,555,1,UNKNOWN,3,1,UNKNOWN,691,555,0,1,FALSE,6,1,3,5,1,0,3,3,6,6,0,0,24,1
12,uncertainty_radar,uncertainty,radar,monitoring,9,1,CLICKED,972,"","",,,,1995,5,ASSUMED_FRIEND,,454,314,4,HOSTILE,12,4,HOSTILE,454,314,0,1,FALSE,5,4,12,6,1,0,3,3,5,6,0,0,24,1
12,uncertainty_radar,uncertainty,radar,monitoring,10,1,CLICKED,1050,"","",,,,1885,2,FRIEND,,79,182,6,ASSUMED_HOSTILE,2,6,ASSUMED_HOSTILE,79,182,0,1,FALSE,2,6,2,6,1,0,3,2,5,7,0,0,24,1
12,uncertainty_radar,uncertainty,radar,monitoring,11,1,CLICKED,1106,"","",,,,1475,6,ASSUMED_HOSTILE,,174,80,3,NEUTRAL,2,3,NEUTRAL,174,80,0,1,FALSE,6,3,2,6,2,0,3,2,5,6,0,0,24,1
12,uncertainty_radar,uncertainty,radar,monitoring,12,1,CLICKED,1379,"","",,,,1929,6,ASSUMED_HOSTILE,,623,212,3,NEUTRAL,18,3,NEUTRAL,623,212,0,1,FALSE,6,3,18,6,3,0,3,2,5,5,0,0,24,1
12,uncertainty_radar,uncertainty,radar,monitoring,13,1,CLICKED,1005,"","",,,,1439,1,UNKNOWN,,522,391,4,HOSTILE,3,4,HOSTILE,522,391,0,1,FALSE,1,4,3,7,3,0,2,2,5,5,0,0,24,1
12,uncertainty_radar,uncertainty,radar,monitoring,14,1,CLICKED,1190,"","",,,,1527,2,FRIEND,,458,487,4,HOSTILE,6,4,HOSTILE,458,487,0,1,FALSE,2,4,6,8,3,0,2,1,5,5,0,0,24,1
12,uncertainty_radar,uncertainty,radar,monitoring,15,0,TIMEOUT,,"","",,,,1131,5,ASSUMED_FRIEND,,,,,,13,4,HOSTILE,609,415,0,1,FALSE,5,4,,9,3,0,2,1,4,5,0,0,24,1
12,uncertainty_radar,uncertainty,radar,monitoring,16,1,CLICKED,1076,"","",,,,552,6,ASSUMED_HOSTILE,,556,329,2,FRIEND,19,2,FRIEND,556,329,0,1,FALSE,6,2,19,9,3,0,2,2,4,4,0,0,24,1
12,uncertainty_radar,uncertainty,radar,monitoring,17,0,TIMEOUT,,"","",,,,920,1,UNKNOWN,,,,,,4,2,FRIEND,388,558,0,1,FALSE,1,2,,9,3,0,1,3,4,4,0,0,24,1
12,uncertainty_radar,uncertainty,radar,monitoring,18,1,CLICKED,1091,"","",,,,1008,5,ASSUMED_FRIEND,,217,164,1,UNKNOWN,14,1,UNKNOWN,217,164,0,1,FALSE,5,1,14,9,3,0,2,3,3,4,0,0,24,1
12,uncertainty_radar,uncertainty,radar,monitoring,19,0,CLICKED,1807,"","",,,,1342,5,ASSUMED_FRIEND,,449,454,6,ASSUMED_HOSTILE,15,6,ASSUMED_HOSTILE,16,606,0,1,FALSE,5,6,23,9,3,0,2,3,2,5,0,0,24,1
12,uncertainty_radar,uncertainty,radar,monitoring,20,1,CLICKED,1178,"","",,,,1874,5,ASSUMED_FRIEND,,369,230,1,UNKNOWN,16,1,UNKNOWN,369,230,0,1,FALSE,5,1,16,9,3,0,3,3,1,5,0,0,24,1
12,uncertainty_radar,uncertainty,radar,monitoring,21,1,CLICKED,983,"","",,,,598,5,ASSUMED_FRIEND,,177,272,4,HOSTILE,17,4,HOSTILE,177,272,0,1,FALSE,5,4,17,10,3,0,3,3,0,5,0,0,24,1
12,uncertainty_radar,uncertainty,radar,monitoring,22,1,CLICKED,1034,"","",,,,1698,3,NEUTRAL,,181,58,5,ASSUMED_FRIEND,2,5,ASSUMED_FRIEND,181,58,0,1,FALSE,3,5,2,10,2,0,3,3,1,5,0,0,24,1
12,uncertainty_radar,uncertainty,radar,monitoring,23,1,CLICKED,1203,"","",,,,937,1,UNKNOWN,,290,379,6,ASSUMED_HOSTILE,5,6,ASSUMED_HOSTILE,290,379,0,1,FALSE,1,6,5,10,2,0,2,3,1,6,0,0,24,1
12,uncertainty_radar,uncertainty,radar,monitoring,24,0,CLICKED,2283,"","",,,,1193,5,ASSUMED_FRIEND,,185,502,6,ASSUMED_HOSTILE,2,6,ASSUMED_HOSTILE,51,314,0,1,FALSE,5,6,5,10,2,0,2,3,0,7,0,0,24,1
12,uncertainty_radar,uncertainty,radar,monitoring,25,1,CLICKED,1247,"","",,,,1956,1,UNKNOWN,,285,449,5,ASSUMED_FRIEND,14,5,ASSUMED_FRIEND,285,449,0,1,FALSE,1,5,14,10,2,0,1,3,1,7,0,0,24,1
12,uncertainty_radar,uncertainty,radar,monitoring,26,1,CLICKED,955,"","",,,,1176,6,ASSUMED_HOSTILE,,295,411,2,FRIEND,2,2,FRIEND,295,411,0,1,FALSE,6,2,2,10,2,0,1,4,1,6,0,0,24,1
12,uncertainty_radar,uncertainty,radar,monitoring,27,0,TIMEOUT,,"","",,,,968,6,ASSUMED_HOSTILE,,,,,,5,5,ASSUMED_FRIEND,532,513,0,1,FALSE,6,5,,10,2,0,1,4,2,5,0,0,24,1
12,uncertainty_radar,uncertainty,radar,monitoring,28,0,TIMEOUT,,"","",,,,1423,4,HOSTILE,,,,,,0,1,UNKNOWN,271,597,0,1,FALSE,4,1,,9,2,0,2,4,2,5,0,0,24,1
12,uncertainty_radar,uncertainty,radar,monitoring,29,1,CLICKED,1292,"","",,,,1532,2,FRIEND,,244,235,3,NEUTRAL,2,3,NEUTRAL,244,235,0,1,FALSE,2,3,2,9,3,0,2,3,2,5,0,0,24,1
12,uncertainty_radar,uncertainty,radar,monitoring,30,1,CLICKED,1001,"","",,,,1795,5,ASSUMED_FRIEND,,325,682,3,NEUTRAL,5,3,NEUTRAL,325,682,0,1,FALSE,5,3,5,9,4,0,2,3,1,5,0,0,24,1
13,uncertainty_radar,uncertainty,radar,monitoring,1,0,CLICKED,257,"","",,,,545,2,FRIEND,,17,3,5,ASSUMED_FRIEND,6,6,ASSUMED_HOSTILE,371,397,0,1,FALSE,2,6,15,2,2,0,6,1,6,7,0,0,24,1
13,uncertainty_radar,uncertainty,radar,monitoring,2,0,CLICKED,1296,"","",,,,703,6,ASSUMED_HOSTILE,,405,489,1,UNKNOWN,6,2,FRIEND,349,421,0,1,FALSE,6,2,1,2,2,0,6,2,6,6,0,0,24,1
13,uncertainty_radar,uncertainty,radar,monitoring,3,1,CLICKED,1685,"","",,,,1882,6,ASSUMED_HOSTILE,,352,553,4,HOSTILE,18,4,HOSTILE,352,553,0,1,FALSE,6,4,18,3,2,0,6,2,6,5,0,0,24,1
13,uncertainty_radar,uncertainty,radar,monitoring,4,0,CLICKED,1824,"","",,,,799,6,ASSUMED_HOSTILE,,162,153,3,NEUTRAL,19,2,FRIEND,286,616,0,1,FALSE,6,2,8,3,2,0,6,3,6,4,0,0,24,1
13,uncertainty_radar,uncertainty,radar,monitoring,5,1,CLICKED,1556,"","",,,,1671,5,ASSUMED_FRIEND,,519,438,1,UNKNOWN,12,1,UNKNOWN,519,438,0,1,FALSE,5,1,12,3,2,0,7,3,5,4,0,0,24,1
13,uncertainty_radar,uncertainty,radar,monitoring,6,1,CLICKED,1220,"","",,,,594,6,ASSUMED_HOSTILE,,207,344,1,UNKNOWN,20,1,UNKNOWN,207,344,0,1,FALSE,6,1,20,3,2,0,8,3,5,3,0,0,24,1
13,uncertainty_radar,uncertainty,radar,monitoring,7,0,CLICKED,3041,"","",,,,538,5,ASSUMED_FRIEND,,268,399,5,ASSUMED_FRIEND,13,2,FRIEND,319,607,0,1,FALSE,5,2,17,3,2,0,8,4,4,3,0,0,24,1
13,uncertainty_radar,uncertainty,radar,monitoring,8,1,CLICKED,1177,"","",,,,611,5,ASSUMED_FRIEND,,638,480,3,NEUTRAL,14,3,NEUTRAL,638,480,0,1,FALSE,5,3,14,3,3,0,8,4,3,3,0,0,24,1
13,uncertainty_radar,uncertainty,radar,monitoring,9,1,CLICKED,1321,"","",,,,1845,2,FRIEND,,462,672,5,ASSUMED_FRIEND,6,5,ASSUMED_FRIEND,462,672,0,1,FALSE,2,5,6,3,3,0,8,3,4,3,0,0,24,1
13,uncertainty_radar,uncertainty,radar,monitoring,10,0,CLICKED,4467,"","",,,,516,3,NEUTRAL,,622,345,3,NEUTRAL,8,6,ASSUMED_HOSTILE,251,390,0,1,FALSE,3,6,14,3,2,0,8,3,4,4,0,0,24,1
13,uncertainty_radar,uncertainty,radar,monitoring,11,1,CLICKED,1338,"","",,,,1842,1,UNKNOWN,,274,306,3,NEUTRAL,0,3,NEUTRAL,274,306,0,1,FALSE,1,3,0,3,3,0,7,3,4,4,0,0,24,1
13,uncertainty_radar,uncertainty,radar,monitoring,12,1,CLICKED,4408,"","",,,,1487,1,UNKNOWN,,229,483,4,HOSTILE,1,4,HOSTILE,229,483,0,1,FALSE,1,4,1,4,3,0,6,3,4,4,0,0,24,1
13,uncertainty_radar,uncertainty,radar,monitoring,13,1,CLICKED,2711,"","",,,,696,1,UNKNOWN,,473,206,6,ASSUMED_HOSTILE,2,6,ASSUMED_HOSTILE,473,206,0,1,FALSE,1,6,2,4,3,0,5,3,4,5,0,0,24,1
13,uncertainty_radar,uncertainty,radar,monitoring,14,0,CLICKED,1727,"","",,,,1437,3,NEUTRAL,,188,225,5,ASSUMED_FRIEND,0,5,ASSUMED_FRIEND,274,205,0,1,FALSE,3,5,16,4,2,0,5,3,5,5,0,0,24,1
13,uncertainty_radar,uncertainty,radar,monitoring,15,0,TIMEOUT,,"","",,,,698,1,UNKNOWN,,,,,,3,5,ASSUMED_FRIEND,175,199,0,1,FALSE,1,5,,4,2,0,4,3,6,5,0,0,24,1
13,uncertainty_radar,uncertainty,radar,monitoring,16,0,CLICKED,4620,"","",,,,1625,6,ASSUMED_HOSTILE,,514,216,6,ASSUMED_HOSTILE,2,5,ASSUMED_FRIEND,548,469,0,1,FALSE,6,5,23,4,2,0,4,3,7,4,0,0,24,1
13,uncertainty_radar,uncertainty,radar,monitoring,17,0,TIMEOUT,,"","",,,,741,4,HOSTILE,,,,,,1,1,UNKNOWN,689,527,0,1,FALSE,4,1,,3,2,0,5,3,7,4,0,0,24,1
13,uncertainty_radar,uncertainty,radar,monitoring,18,1,CLICKED,1388,"","",,,,953,1,UNKNOWN,,594,418,6,ASSUMED_HOSTILE,1,6,ASSUMED_HOSTILE,594,418,0,1,FALSE,1,6,1,3,2,0,4,3,7,5,0,0,24,1
13,uncertainty_radar,uncertainty,radar,monitoring,19,1,CLICKED,1267,"","",,,,951,6,ASSUMED_HOSTILE,,494,513,4,HOSTILE,1,4,HOSTILE,494,513,0,1,FALSE,6,4,1,4,2,0,4,3,7,4,0,0,24,1
13,uncertainty_radar,uncertainty,radar,monitoring,20,0,TIMEOUT,,"","",,,,1803,1,UNKNOWN,,,,,,4,5,ASSUMED_FRIEND,230,285,0,1,FALSE,1,5,,4,2,0,3,3,8,4,0,0,24,1
13,uncertainty_radar,uncertainty,radar,monitoring,21,1,CLICKED,1360,"","",,,,1946,5,ASSUMED_FRIEND,,117,435,3,NEUTRAL,0,3,NEUTRAL,117,435,0,1,FALSE,5,3,0,4,3,0,3,3,7,4,0,0,24,1
13,uncertainty_radar,uncertainty,radar,monitoring,22,1,CLICKED,1619,"","",,,,1217,5,ASSUMED_FRIEND,,387,196,2,FRIEND,2,2,FRIEND,387,196,0,1,FALSE,5,2,2,4,3,0,3,4,6,4,0,0,24,1
13,uncertainty_radar,uncertainty,radar,monitoring,23,1,CLICKED,1329,"","",,,,762,5,ASSUMED_FRIEND,,242,336,3,NEUTRAL,3,3,NEUTRAL,242,336,0,1,FALSE,5,3,3,4,4,0,3,4,5,4,0,0,24,1
13,uncertainty_radar,uncertainty,radar,monitoring,24,1,CLICKED,1496,"","",,,,839,5,ASSUMED_FRIEND,,484,287,4,HOSTILE,4,4,HOSTILE,484,287,0,1,FALSE,5,4,4,5,4,0,3,4,4,4,0,0,24,1
13,uncertainty_radar,uncertainty,radar,monitoring,25,0,CLICKED,4980,"","",,,,634,1,UNKNOWN,,544,448,2,FRIEND,5,3,NEUTRAL,487,271,0,1,FALSE,1,3,7,5,5,0,2,4,4,4,0,0,24,1
13,uncertainty_radar,uncertainty,radar,monitoring,26,1,CLICKED,2015,"","",,,,1551,1,UNKNOWN,,154,388,5,ASSUMED_FRIEND,12,5,ASSUMED_FRIEND,154,388,0,1,FALSE,1,5,12,5,5,0,1,4,5,4,0,0,24,1
13,uncertainty_radar,uncertainty,radar,monitoring,27,1,CLICKED,1553,"","",,,,1251,6,ASSUMED_HOSTILE,,439,215,2,FRIEND,8,2,FRIEND,439,215,0,1,FALSE,6,2,8,5,5,0,1,5,5,3,0,0,24,1
13,uncertainty_radar,uncertainty,radar,monitoring,28,1,CLICKED,1420,"","",,,,1005,6,ASSUMED_HOSTILE,,458,392,1,UNKNOWN,21,1,UNKNOWN,458,392,0,1,FALSE,6,1,21,5,5,0,2,5,5,2,0,0,24,1
13,uncertainty_radar,uncertainty,radar,monitoring,29,0,TIMEOUT,,"","",,,,1695,3,NEUTRAL,,,,,,0,2,FRIEND,456,406,0,1,FALSE,3,2,,5,4,0,2,6,5,2,0,0,24,1
13,uncertainty_radar,uncertainty,radar,monitoring,30,1,CLICKED,1371,"","",,,,1172,5,ASSUMED_FRIEND,,255,306,1,UNKNOWN,6,1,UNKNOWN,255,306,0,1,FALSE,5,1,6,5,4,0,3,6,4,2,0,0,24,1
2,control_black,control,black,monitoring,1,0,TIMEOUT,,"","",,,,1955,5,ASSUMED_FRIEND,,,,,,12,2,FRIEND,223,178,0,1,FALSE,5,2,,2,2,0,6,3,5,6,0,0,24,2
2,control_black,control,black,monitoring,2,0,TIMEOUT,,"","",,,,1300,6,ASSUMED_HOSTILE,,,,,,18,3,NEUTRAL,155,340,0,1,FALSE,6,3,,2,3,0,6,3,5,5,0,0,24,2
2,control_black,control,black,monitoring,3,0,TIMEOUT,,"","",,,,1954,6,ASSUMED_HOSTILE,,,,,,19,1,UNKNOWN,653,245,0,1,FALSE,6,1,,2,3,0,7,3,5,4,0,0,24,2
2,control_black,control,black,monitoring,4,0,TIMEOUT,,"","",,,,903,5,ASSUMED_FRIEND,,,,,,13,1,UNKNOWN,450,300,0,1,FALSE,5,1,,2,3,0,8,3,4,4,0,0,24,2
2,control_black,control,black,monitoring,5,1,CLICKED,1865,"","",,,,631,5,ASSUMED_FRIEND,,416,439,3,NEUTRAL,14,3,NEUTRAL,416,439,0,1,FALSE,5,3,14,2,4,0,8,3,3,4,0,0,24,2
2,control_black,control,black,monitoring,6,0,TIMEOUT,,"","",,,,1870,6,ASSUMED_HOSTILE,,,,,,20,4,HOSTILE,380,318,0,1,FALSE,6,4,,3,4,0,8,3,3,3,0,0,24,2
2,control_black,control,black,monitoring,7,1,CLICKED,1304,"","",,,,1094,1,UNKNOWN,,281,606,2,FRIEND,0,2,FRIEND,281,606,0,1,FALSE,1,2,0,3,4,0,7,4,3,3,0,0,24,2
2,control_black,control,black,monitoring,8,0,TIMEOUT,,"","",,,,1335,1,UNKNOWN,,,,,,1,6,ASSUMED_HOSTILE,739,178,0,1,FALSE,1,6,,3,4,0,6,4,3,4,0,0,24,2
2,control_black,control,black,monitoring,9,0,TIMEOUT,,"","",,,,1018,6,ASSUMED_HOSTILE,,,,,,1,4,HOSTILE,615,229,0,1,FALSE,6,4,,4,4,0,6,4,3,3,0,0,24,2
2,control_black,control,black,monitoring,10,1,CLICKED,1577,"","",,,,1098,1,UNKNOWN,,479,341,4,HOSTILE,2,4,HOSTILE,479,341,0,1,FALSE,1,4,2,5,4,0,5,4,3,3,0,0,24,2
2,control_black,control,black,monitoring,11,0,TIMEOUT,,"","",,,,805,4,HOSTILE,,,,,,1,6,ASSUMED_HOSTILE,485,246,0,1,FALSE,4,6,,4,4,0,5,4,3,4,0,0,24,2
2,control_black,control,black,monitoring,12,0,TIMEOUT,,"","",,,,1520,5,ASSUMED_FRIEND,,,,,,15,6,ASSUMED_HOSTILE,368,558,0,1,FALSE,5,6,,4,4,0,5,4,2,5,0,0,24,2
2,control_black,control,black,monitoring,13,1,CLICKED,1677,"","",,,,1659,5,ASSUMED_FRIEND,,308,173,3,NEUTRAL,16,3,NEUTRAL,308,173,0,1,FALSE,5,3,16,4,5,0,5,4,1,5,0,0,24,2
2,control_black,control,black,monitoring,14,0,TIMEOUT,,"","",,,,912,5,ASSUMED_FRIEND,,,,,,17,1,UNKNOWN,229,381,0,1,FALSE,5,1,,4,5,0,6,4,0,5,0,0,24,2
2,control_black,control,black,monitoring,15,0,TIMEOUT,,"","",,,,1741,6,ASSUMED_HOSTILE,,,,,,1,5,ASSUMED_FRIEND,455,229,0,1,FALSE,6,5,,4,5,0,6,4,1,4,0,0,24,2
2,control_black,control,black,monitoring,16,1,CLICKED,1900,"","",,,,1788,6,ASSUMED_HOSTILE,,265,327,2,FRIEND,15,2,FRIEND,265,327,0,1,FALSE,6,2,15,4,5,0,6,5,1,3,0,0,24,2
2,control_black,control,black,monitoring,17,1,CLICKED,1421,"","",,,,1414,6,ASSUMED_HOSTILE,,304,237,1,UNKNOWN,21,1,UNKNOWN,304,237,0,1,FALSE,6,1,21,4,5,0,7,5,1,2,0,0,24,2
2,control_black,control,black,monitoring,18,0,TIMEOUT,,"","",,,,1966,4,HOSTILE,,,,,,2,2,FRIEND,297,501,0,1,FALSE,4,2,,3,5,0,7,6,1,2,0,0,24,2
2,control_black,control,black,monitoring,19,0,TIMEOUT,,"","",,,,965,6,ASSUMED_HOSTILE,,,,,,22,4,HOSTILE,550,348,0,1,FALSE,6,4,,4,5,0,7,6,1,1,0,0,24,2
2,control_black,control,black,monitoring,20,0,TIMEOUT,,"","",,,,1533,4,HOSTILE,,,,,,10,3,NEUTRAL,646,119,0,1,FALSE,4,3,,3,6,0,7,6,1,1,0,0,24,2
2,control_black,control,black,monitoring,21,0,TIMEOUT,,"","",,,,909,6,ASSUMED_HOSTILE,,,,,,23,5,ASSUMED_FRIEND,316,523,0,1,FALSE,6,5,,3,6,0,7,6,2,0,0,0,24,2
2,control_black,control,black,monitoring,22,0,TIMEOUT,,"","",,,,1426,1,UNKNOWN,,,,,,3,6,ASSUMED_HOSTILE,33,211,0,1,FALSE,1,6,,3,6,0,6,6,2,1,0,0,24,2
2,control_black,control,black,monitoring,23,0,TIMEOUT,,"","",,,,1580,6,ASSUMED_HOSTILE,,,,,,3,2,FRIEND,106,186,0,1,FALSE,6,2,,3,6,0,6,7,2,0,0,0,24,2
2,control_black,control,black,monitoring,24,0,TIMEOUT,,"","",,,,630,1,UNKNOWN,,,,,,4,4,HOSTILE,457,287,0,1,FALSE,1,4,,4,6,0,5,7,2,0,0,0,24,2
2,control_black,control,black,monitoring,25,1,CLICKED,1785,"","",,,,1198,5,ASSUMED_FRIEND,,441,242,4,HOSTILE,1,4,HOSTILE,441,242,0,1,FALSE,5,4,1,5,6,0,5,7,1,0,0,0,24,2
2,control_black,control,black,monitoring,26,1,CLICKED,1679,"","",,,,1011,3,NEUTRAL,,231,423,6,ASSUMED_HOSTILE,8,6,ASSUMED_HOSTILE,231,423,0,1,FALSE,3,6,8,5,5,0,5,7,1,1,0,0,24,2
2,control_black,control,black,monitoring,27,0,TIMEOUT,,"","",,,,1617,6,ASSUMED_HOSTILE,,,,,,8,3,NEUTRAL,324,366,0,1,FALSE,6,3,,5,6,0,5,7,1,0,0,0,24,2
2,control_black,control,black,monitoring,28,1,CLICKED,2169,"","",,,,981,5,ASSUMED_FRIEND,,271,493,6,ASSUMED_HOSTILE,23,6,ASSUMED_HOSTILE,271,493,0,1,FALSE,5,6,23,5,6,0,5,7,0,1,0,0,24,2
2,control_black,control,black,monitoring,29,0,TIMEOUT,,"","",,,,1816,1,UNKNOWN,,,,,,5,5,ASSUMED_FRIEND,387,169,0,1,FALSE,1,5,,5,6,0,4,7,1,1,0,0,24,2
2,control_black,control,black,monitoring,30,0,TIMEOUT,,"","",,,,1884,3,NEUTRAL,,,,,,8,1,UNKNOWN,470,370,0,1,FALSE,3,1,,5,5,0,5,7,1,1,0,0,24,2
3,control_black,control,black,monitoring,1,0,TIMEOUT,,"","",,,,577,6,ASSUMED_HOSTILE,,,,,,18,4,HOSTILE,321,624,0,1,FALSE,6,4,,3,2,0,6,2,6,5,0,0,24,2
3,control_black,control,black,monitoring,2,0,CLICKED,246,"","",,,,1110,6,ASSUMED_HOSTILE,,398,386,6,ASSUMED_HOSTILE,19,1,UNKNOWN,456,320,0,1,FALSE,6,1,21,3,2,0,7,2,6,4,0,0,24,2
3,control_black,control,black,monitoring,3,0,CLICKED,597,"","",,,,658,5,ASSUMED_FRIEND,,460,328,1,UNKNOWN,12,3,NEUTRAL,463,157,0,1,FALSE,5,3,19,3,3,0,7,2,5,4,0,0,24,2
3,control_black,control,black,monitoring,4,1,CLICKED,1068,"","",,,,994,4,HOSTILE,,213,120,3,NEUTRAL,10,3,NEUTRAL,213,120,0,1,FALSE,4,3,10,2,4,0,7,2,5,4,0,0,24,2
3,control_black,control,black,monitoring,5,1,CLICKED,833,"","",,,,1876,2,FRIEND,,327,330,4,HOSTILE,6,4,HOSTILE,327,330,0,1,FALSE,2,4,6,3,4,0,7,1,5,4,0,0,24,2
3,control_black,control,black,monitoring,6,0,TIMEOUT,,"","",,,,1607,1,UNKNOWN,,,,,,0,4,HOSTILE,543,491,0,1,FALSE,1,4,,4,4,0,6,1,5,4,0,0,24,2
3,control_black,control,black,monitoring,7,1,CLICKED,1197,"","",,,,987,5,ASSUMED_FRIEND,,660,495,6,ASSUMED_HOSTILE,13,6,ASSUMED_HOSTILE,660,495,0,1,FALSE,5,6,13,4,4,0,6,1,4,5,0,0,24,2
3,control_black,control,black,monitoring,8,0,TIMEOUT,,"","",,,,830,1,UNKNOWN,,,,,,1,2,FRIEND,211,530,0,1,FALSE,1,2,,4,4,0,5,2,4,5,0,0,24,2
3,control_black,control,black,monitoring,9,0,TIMEOUT,,"","",,,,1505,2,FRIEND,,,,,,1,3,NEUTRAL,211,678,0,1,FALSE,2,3,,4,5,0,5,1,4,5,0,0,24,2
3,control_black,control,black,monitoring,10,0,CLICKED,462,"","",,,,1286,6,ASSUMED_HOSTILE,,347,683,5,ASSUMED_FRIEND,13,3,NEUTRAL,337,222,0,1,FALSE,6,3,15,4,6,0,5,1,4,4,0,0,24,2
3,control_black,control,black,monitoring,11,0,TIMEOUT,,"","",,,,647,1,UNKNOWN,,,,,,2,6,ASSUMED_HOSTILE,371,196,0,1,FALSE,1,6,,4,6,0,4,1,4,5,0,0,24,2
3,control_black,control,black,monitoring,12,0,TIMEOUT,,"","",,,,1925,5,ASSUMED_FRIEND,,,,,,14,4,HOSTILE,353,427,0,1,FALSE,5,4,,5,6,0,4,1,3,5,0,0,24,2
3,control_black,control,black,monitoring,13,0,TIMEOUT,,"","",,,,755,5,ASSUMED_FRIEND,,,,,,15,6,ASSUMED_HOSTILE,303,634,0,1,FALSE,5,6,,5,6,0,4,1,2,6,0,0,24,2
3,control_black,control,black,monitoring,14,0,TIMEOUT,,"","",,,,821,6,ASSUMED_HOSTILE,,,,,,2,4,HOSTILE,467,296,0,1,FALSE,6,4,,6,6,0,4,1,2,5,0,0,24,2
3,control_black,control,black,monitoring,15,1,CLICKED,1009,"","",,,,838,1,UNKNOWN,,301,350,3,NEUTRAL,3,3,NEUTRAL,301,350,0,1,FALSE,1,3,3,6,7,0,3,1,2,5,0,0,24,2
3,control_black,control,black,monitoring,16,0,TIMEOUT,,"","",,,,1471,5,ASSUMED_FRIEND,,,,,,16,4,HOSTILE,447,509,0,1,FALSE,5,4,,7,7,0,3,1,1,5,0,0,24,2
3,control_black,control,black,monitoring,17,0,TIMEOUT,,"","",,,,1095,5,ASSUMED_FRIEND,,,,,,17,2,FRIEND,267,546,0,1,FALSE,5,2,,7,7,0,3,2,0,5,0,0,24,2
3,control_black,control,black,monitoring,18,1,CLICKED,1170,"","",,,,582,4,HOSTILE,,508,160,5,ASSUMED_FRIEND,0,5,ASSUMED_FRIEND,508,160,0,1,FALSE,4,5,0,6,7,0,3,2,1,5,0,0,24,2
3,control_black,control,black,monitoring,19,1,CLICKED,1456,"","",,,,1366,6,ASSUMED_HOSTILE,,431,611,1,UNKNOWN,15,1,UNKNOWN,431,611,0,1,FALSE,6,1,15,6,7,0,4,2,1,4,0,0,24,2
3,control_black,control,black,monitoring,20,0,TIMEOUT,,"","",,,,904,1,UNKNOWN,,,,,,4,6,ASSUMED_HOSTILE,386,230,0,1,FALSE,1,6,,6,7,0,3,2,1,5,0,0,24,2
3,control_black,control,black,monitoring,21,0,TIMEOUT,,"","",,,,877,1,UNKNOWN,,,,,,5,3,NEUTRAL,366,424,0,1,FALSE,1,3,,6,8,0,2,2,1,5,0,0,24,2
3,control_black,control,black,monitoring,22,1,CLICKED,1129,"","",,,,1330,6,ASSUMED_HOSTILE,,573,136,5,ASSUMED_FRIEND,4,5,ASSUMED_FRIEND,573,136,0,1,FALSE,6,5,4,6,8,0,2,2,2,4,0,0,24,2
